MonoNS,EstNS,MonoS,EstS,t_unix,AccX,AccY,AccZ,AsX,AsY,AsZ,HX,HY,HZ,AngX,AngY,AngZ,TemperatureC
799918085866,799916085866,799.918085866,799.916085866,1768551559.7667289,-0.066,0.082,0.995,0.0,0.0,-0.122,-30.212,-50.83,-58.825,4.697,3.778,69.616,
799928932343,799926932343,799.928932343,799.926932343,1768551559.7776659,-0.066,0.082,0.995,0.0,0.0,-0.183,-30.199,-50.843,-58.968,4.697,3.778,69.614,
799939282378,799937282378,799.939282378,799.937282378,1768551559.7880282,-0.066,0.082,0.995,0.0,0.0,-0.183,-30.147,-50.817,-59.02,4.697,3.778,69.612,
799949508447,799947508447,799.949508447,799.947508447,1768551559.798195,-0.066,0.082,0.995,0.0,0.0,-0.183,-30.121,-50.83,-59.046,4.697,3.778,69.61,
799959653138,799957653138,799.959653138,799.957653138,1768551559.8084066,-0.066,0.082,0.995,0.0,0.0,-0.183,-30.121,-50.791,-59.046,4.698,3.778,69.608,
799969866082,799967866082,799.969866082,799.967866082,1768551559.8186388,-0.066,0.082,0.995,0.0,0.0,-0.183,-30.108,-50.804,-59.059,4.698,3.777,69.606,
799980065609,799978065609,799.980065609,799.978065609,1768551559.8288426,-0.066,0.082,0.995,0.0,0.0,-0.183,-30.121,-50.804,-59.059,4.698,3.777,69.604,
799990305679,799988305679,799.990305679,799.988305679,1768551559.8390603,-0.066,0.082,0.995,0.0,0.0,-0.183,-30.108,-50.83,-59.072,4.698,3.777,69.602,
800006496640,800004496640,800.00649664,800.00449664,1768551559.8494024,-0.066,0.082,0.995,0.0,0.0,-0.183,-30.121,-50.843,-59.072,4.698,3.777,69.6,
800017150899,800015150899,800.017150899,800.015150899,1768551559.8595405,-0.066,0.082,0.995,0.0,0.0,-0.183,-30.108,-50.856,-59.176,4.698,3.777,69.599,
800021601087,800019601087,800.021601087,800.019601087,1768551559.870136,-0.066,0.082,0.995,0.0,0.0,-0.183,-30.095,-50.817,-59.202,4.698,3.777,69.597,
800033269523,800031269523,800.033269523,800.031269523,1768551559.8820329,-0.066,0.082,0.995,0.0,0.0,-0.183,-30.095,-50.817,-59.189,4.698,3.777,69.594,
800043516011,800041516011,800.043516011,800.041516011,1768551559.8922734,-0.066,0.082,0.995,0.0,0.0,-0.183,-30.082,-50.817,-59.124,4.698,3.777,69.592,
800053695995,800051695995,800.053695995,800.051695995,1768551559.902469,-0.066,0.082,0.995,0.0,0.0,0.0,-30.095,-50.817,-59.111,4.698,3.777,69.591,
800063915647,800061915647,800.063915647,800.061915647,1768551559.9126832,-0.066,0.082,0.995,0.0,0.0,-0.183,-30.082,-50.83,-59.098,4.698,3.777,69.588,
800074127133,800072127133,800.074127133,800.072127133,1768551559.922909,-0.066,0.082,0.995,0.0,0.0,-0.183,-30.095,-50.817,-59.085,4.698,3.777,69.587,
800084370120,800082370120,800.08437012,800.08237012,1768551559.9331205,-0.066,0.082,0.995,0.0,0.0,-0.122,-30.121,-50.804,-59.085,4.698,3.777,69.585,
800094705863,800092705863,800.094705863,800.092705863,1768551559.943463,-0.066,0.082,0.995,0.0,0.0,-0.122,-30.108,-50.817,-59.072,4.698,3.777,69.583,
800104889930,800102889930,800.10488993,800.10288993,1768551559.9536686,-0.066,0.082,0.995,0.0,0.0,-0.122,-30.121,-50.791,-59.098,4.698,3.777,69.581,
800115139043,800113139043,800.115139043,800.113139043,1768551559.9638982,-0.066,0.082,0.995,0.0,0.0,-0.122,-30.147,-50.791,-59.046,4.698,3.777,69.579,
800125321069,800123321069,800.125321069,800.123321069,1768551559.9740973,-0.066,0.082,0.995,0.0,0.0,-0.122,-30.147,-50.804,-59.033,4.698,3.777,69.578,
800135705230,800133705230,800.13570523,800.13370523,1768551559.9844828,-0.066,0.082,0.995,0.0,0.0,-0.122,-30.147,-50.804,-59.059,4.698,3.777,69.576,
800145939467,800143939467,800.145939467,800.143939467,1768551559.9947064,-0.066,0.082,0.995,0.0,0.0,-0.122,-30.147,-50.817,-59.059,4.698,3.777,69.574,
800156046822,800154046822,800.156046822,800.154046822,1768551560.0048206,-0.066,0.082,0.995,0.0,0.0,-0.122,-30.121,-50.817,-59.059,4.698,3.777,69.572,
800166521405,800164521405,800.166521405,800.164521405,1768551560.015306,-0.066,0.082,0.995,0.0,0.0,-0.183,-30.121,-50.83,-59.072,4.698,3.777,69.57,
800176754183,800174754183,800.176754183,800.174754183,1768551560.0255299,-0.066,0.082,0.995,0.0,0.0,-0.183,-30.121,-50.817,-59.072,4.697,3.777,69.568,
800186912874,800184912874,800.186912874,800.184912874,1768551560.0357425,-0.066,0.082,0.995,0.0,0.0,-0.183,-30.108,-50.817,-59.072,4.697,3.777,69.566,
800197241908,800195241908,800.197241908,800.195241908,1768551560.0460236,-0.066,0.082,0.995,0.0,0.0,-0.122,-30.108,-50.804,-59.072,4.697,3.777,69.564,
800207417517,800205417517,800.207417517,800.205417517,1768551560.0561702,-0.066,0.082,0.995,0.0,0.0,-0.122,-30.121,-50.804,-59.072,4.697,3.777,69.563,
800217737508,800215737508,800.217737508,800.215737508,1768551560.0665183,-0.066,0.082,0.995,0.0,0.0,0.0,-30.134,-50.804,-59.059,4.697,3.777,69.561,
800227988662,800225988662,800.227988662,800.225988662,1768551560.0767748,-0.066,0.082,0.995,0.0,0.0,-0.183,-30.134,-50.817,-59.046,4.697,3.777,69.559,
800238249151,800236249151,800.238249151,800.236249151,1768551560.0870254,-0.066,0.082,0.995,0.0,0.0,-0.183,-30.134,-50.804,-59.059,4.697,3.777,69.557,
800248249167,800246249167,800.248249167,800.246249167,1768551560.0970337,-0.066,0.082,0.995,0.0,0.0,-0.183,-30.121,-50.804,-59.059,4.697,3.777,69.555,
800258632162,800256632162,800.258632162,800.256632162,1768551560.1074147,-0.066,0.082,0.995,0.0,0.0,-0.183,-30.121,-50.791,-59.059,4.697,3.777,69.553,
800268903442,800266903442,800.268903442,800.266903442,1768551560.1176617,-0.066,0.082,0.995,0.0,0.0,0.0,-30.134,-50.804,-59.072,4.697,3.777,69.551,
800279021589,800277021589,800.279021589,800.277021589,1768551560.127805,-0.066,0.082,0.995,0.0,0.0,-0.183,-30.147,-50.791,-58.981,4.697,3.777,69.549,
800290195333,800288195333,800.290195333,800.288195333,1768551560.1388364,-0.066,0.082,0.995,0.0,0.0,-0.183,-30.147,-50.83,-58.942,4.697,3.777,69.547,
800299945087,800297945087,800.299945087,800.297945087,1768551560.1486883,-0.066,0.082,0.995,0.0,0.0,-0.122,-30.121,-50.817,-59.059,4.697,3.777,69.545,
800310197700,800308197700,800.3101977,800.3081977,1768551560.158923,-0.066,0.082,0.995,0.0,0.0,-0.122,-30.121,-50.856,-59.059,4.697,3.777,69.543,
800320350265,800318350265,800.320350265,800.318350265,1768551560.1691313,-0.066,0.082,0.995,0.0,0.0,-0.183,-30.147,-50.817,-58.968,4.697,3.777,69.541,
800330776721,800328776721,800.330776721,800.328776721,1768551560.1795318,-0.066,0.082,0.995,0.0,0.0,0.0,-30.16,-50.817,-58.955,4.697,3.777,69.54,
800340904202,800338904202,800.340904202,800.338904202,1768551560.1896894,-0.066,0.082,0.995,0.0,0.0,-0.183,-30.173,-50.83,-58.981,4.697,3.777,69.537,
800351130563,800349130563,800.351130563,800.349130563,1768551560.1999106,-0.066,0.082,0.995,0.0,0.0,-0.183,-30.16,-50.83,-58.981,4.697,3.777,69.536,
800361426928,800359426928,800.361426928,800.359426928,1768551560.2101758,-0.066,0.082,0.995,0.0,0.0,-0.183,-30.173,-50.817,-58.968,4.697,3.777,69.534,
800371818673,800369818673,800.371818673,800.369818673,1768551560.2205775,-0.066,0.082,0.995,0.0,0.0,0.0,-30.147,-50.83,-58.981,4.697,3.777,69.532,
800382013242,800380013242,800.382013242,800.380013242,1768551560.2307904,-0.066,0.082,0.995,0.0,0.0,-0.183,-30.147,-50.804,-58.981,4.697,3.777,69.53,
800392223561,800390223561,800.392223561,800.390223561,1768551560.2410004,-0.066,0.082,0.995,0.0,0.0,-0.183,-30.134,-50.817,-59.046,4.697,3.777,69.528,
800402435046,800400435046,800.402435046,800.400435046,1768551560.251211,-0.066,0.082,0.995,0.0,0.0,-0.183,-30.147,-50.791,-59.059,4.697,3.777,69.526,
800412652949,800410652949,800.412652949,800.410652949,1768551560.2614355,-0.066,0.082,0.995,0.0,0.0,-0.183,-30.16,-50.817,-59.059,4.697,3.777,69.524,
800423037402,800421037402,800.423037402,800.421037402,1768551560.2718184,-0.066,0.082,0.995,0.0,0.0,-0.183,-30.16,-50.804,-59.033,4.697,3.777,69.522,
800433288848,800431288848,800.433288848,800.431288848,1768551560.282051,-0.066,0.082,0.995,0.0,0.0,-0.183,-30.134,-50.83,-59.02,4.697,3.777,69.52,
800443479624,800441479624,800.443479624,800.441479624,1768551560.2922568,-0.066,0.082,0.995,0.0,0.0,-0.183,-30.147,-50.83,-59.007,4.697,3.777,69.519,
800453694318,800451694318,800.453694318,800.451694318,1768551560.3024716,-0.066,0.082,0.995,0.0,0.0,0.0,-30.147,-50.843,-59.007,4.697,3.777,69.517,
800463910179,800461910179,800.463910179,800.461910179,1768551560.312689,-0.066,0.082,0.995,0.0,0.0,-0.122,-30.147,-50.817,-59.007,4.697,3.777,69.515,
800474172709,800472172709,800.474172709,800.472172709,1768551560.322927,-0.066,0.082,0.995,0.0,0.0,-0.122,-30.134,-50.83,-59.02,4.697,3.777,69.513,
800484343943,800482343943,800.484343943,800.482343943,1768551560.3331218,-0.066,0.082,0.995,0.0,0.0,-0.122,-30.134,-50.83,-59.02,4.697,3.777,69.511,
800494562721,800492562721,800.494562721,800.492562721,1768551560.3433406,-0.066,0.082,0.995,0.0,0.0,-0.122,-30.147,-50.817,-59.02,4.697,3.777,69.509,
800504940465,800502940465,800.504940465,800.502940465,1768551560.353724,-0.066,0.082,0.995,0.0,0.0,-0.122,-30.134,-50.83,-59.02,4.697,3.777,69.507,
800516597525,800514597525,800.516597525,800.514597525,1768551560.364537,-0.066,0.082,0.995,0.0,0.0,-0.122,-30.16,-50.817,-59.02,4.697,3.777,69.506,
800525805334,800523805334,800.525805334,800.523805334,1768551560.374556,-0.066,0.082,0.995,0.0,0.0,0.0,-30.147,-50.843,-59.098,4.697,3.777,69.504,
800536019528,800534019528,800.536019528,800.534019528,1768551560.384751,-0.066,0.082,0.995,0.0,0.0,-0.183,-30.121,-50.817,-59.137,4.697,3.777,69.502,
800546196179,800544196179,800.546196179,800.544196179,1768551560.394937,-0.066,0.082,0.995,0.0,0.0,-0.183,-30.121,-50.804,-59.137,4.697,3.777,69.5,
800556452292,800554452292,800.556452292,800.554452292,1768551560.4051821,-0.066,0.082,0.995,0.0,0.0,-0.183,-30.134,-50.791,-59.072,4.697,3.777,69.498,
800566603691,800564603691,800.566603691,800.564603691,1768551560.415373,-0.066,0.082,0.995,0.0,0.0,-0.183,-30.147,-50.817,-59.046,4.697,3.777,69.496,
800576805260,800574805260,800.57680526,800.57480526,1768551560.4255865,-0.066,0.082,0.995,0.0,0.0,-0.183,-30.186,-50.817,-59.046,4.697,3.777,69.494,
800586985535,800584985535,800.586985535,800.584985535,1768551560.4357674,-0.066,0.082,0.995,0.0,0.0,-0.183,-30.147,-50.83,-59.02,4.697,3.777,69.492,
800597599542,800595599542,800.597599542,800.595599542,1768551560.446263,-0.066,0.082,0.995,0.0,0.0,-0.183,-30.134,-50.83,-59.02,4.697,3.777,69.49,
800607583807,800605583807,800.607583807,800.605583807,1768551560.4562974,-0.066,0.082,0.995,0.0,0.0,-0.183,-30.134,-50.83,-59.085,4.697,3.777,69.488,
800617874339,800615874339,800.617874339,800.615874339,1768551560.4666417,-0.066,0.082,0.995,0.0,0.0,-0.183,-30.082,-50.804,-59.15,4.697,3.777,69.486,
800628078824,800626078824,800.628078824,800.626078824,1768551560.4768507,-0.066,0.082,0.995,0.0,0.0,-0.183,-30.095,-50.804,-59.111,4.697,3.777,69.484,
800638317728,800636317728,800.638317728,800.636317728,1768551560.4870648,-0.066,0.082,0.995,0.0,0.0,-0.122,-30.121,-50.804,-59.072,4.697,3.777,69.483,
800648525422,800646525422,800.648525422,800.646525422,1768551560.497301,-0.066,0.082,0.995,0.0,0.0,-0.122,-30.108,-50.817,-59.059,4.697,3.777,69.481,
800658900249,800656900249,800.658900249,800.656900249,1768551560.5076828,-0.066,0.082,0.995,0.0,0.0,-0.183,-30.134,-50.817,-59.059,4.697,3.777,69.479,
800669220532,800667220532,800.669220532,800.667220532,1768551560.5179794,-0.066,0.082,0.995,0.0,0.0,-0.183,-30.134,-50.83,-59.059,4.697,3.777,69.477,
800679396141,800677396141,800.679396141,800.677396141,1768551560.5281494,-0.066,0.082,0.995,0.0,0.0,-0.183,-30.147,-50.817,-59.072,4.697,3.777,69.475,
800689578459,800687578459,800.689578459,800.687578459,1768551560.538365,-0.066,0.082,0.995,0.0,0.0,-0.183,-30.121,-50.817,-59.046,4.697,3.777,69.473,
800699830196,800697830196,800.699830196,800.697830196,1768551560.5486054,-0.066,0.082,0.995,0.0,0.0,-0.183,-30.147,-50.817,-59.046,4.697,3.777,69.471,
800710027390,800708027390,800.71002739,800.70802739,1768551560.558808,-0.066,0.082,0.995,0.0,0.0,-0.183,-30.147,-50.843,-59.059,4.697,3.777,69.469,
800720416218,800718416218,800.720416218,800.718416218,1768551560.5691917,-0.066,0.082,0.995,0.0,0.0,-0.183,-30.147,-50.817,-59.059,4.697,3.777,69.467,
800730630620,800728630620,800.73063062,800.72863062,1768551560.579411,-0.066,0.082,0.995,0.0,0.0,-0.183,-30.147,-50.843,-59.033,4.697,3.777,69.466,
800740852607,800738852607,800.740852607,800.738852607,1768551560.5896268,-0.066,0.082,0.995,0.0,0.0,-0.183,-30.16,-50.843,-59.059,4.697,3.777,69.463,
800751173473,800749173473,800.751173473,800.749173473,1768551560.5998716,-0.066,0.082,0.995,0.0,0.0,-0.183,-30.134,-50.843,-59.072,4.697,3.777,69.462,
800761277620,800759277620,800.76127762,800.75927762,1768551560.610058,-0.066,0.082,0.995,0.0,0.0,-0.183,-30.121,-50.83,-59.072,4.697,3.777,69.46,
800771673740,800769673740,800.77167374,800.76967374,1768551560.6204522,-0.066,0.082,0.995,0.0,0.0,-0.183,-30.108,-50.83,-59.072,4.698,3.777,69.458,
800781886976,800779886976,800.781886976,800.779886976,1768551560.6306624,-0.066,0.082,0.995,0.0,0.0,-0.122,-30.121,-50.817,-59.085,4.698,3.777,69.456,
800792107212,800790107212,800.792107212,800.790107212,1768551560.6408882,-0.066,0.082,0.995,0.0,0.0,-0.122,-30.121,-50.843,-59.072,4.698,3.777,69.454,
800802496623,800800496623,800.802496623,800.800496623,1768551560.651273,-0.066,0.082,0.995,0.0,0.0,-0.183,-30.147,-50.817,-59.059,4.698,3.777,69.452,
800812711609,800810711609,800.812711609,800.810711609,1768551560.661488,-0.066,0.082,0.995,0.0,0.0,-0.183,-30.147,-50.83,-59.059,4.698,3.777,69.45,
800822972972,800820972972,800.822972972,800.820972972,1768551560.6717055,-0.066,0.082,0.995,0.0,0.0,-0.183,-30.147,-50.817,-59.059,4.698,3.777,69.448,
800833245711,800831245711,800.833245711,800.831245711,1768551560.6819873,-0.066,0.082,0.995,0.0,0.0,-0.183,-30.147,-50.83,-59.059,4.698,3.777,69.446,
800843372318,800841372318,800.843372318,800.841372318,1768551560.692149,-0.066,0.082,0.995,0.0,0.0,-0.183,-30.173,-50.843,-59.046,4.698,3.777,69.444,
800853755604,800851755604,800.853755604,800.851755604,1768551560.7025313,-0.066,0.082,0.995,0.0,0.0,-0.183,-30.147,-50.843,-59.059,4.698,3.777,69.443,
800863992757,800861992757,800.863992757,800.861992757,1768551560.712749,-0.066,0.082,0.995,0.0,0.0,-0.183,-30.16,-50.843,-59.059,4.698,3.777,69.44,
800874217661,800872217661,800.874217661,800.872217661,1768551560.722991,-0.066,0.082,0.995,0.0,0.0,-0.183,-30.134,-50.856,-59.059,4.698,3.777,69.439,
800884406978,800882406978,800.884406978,800.882406978,1768551560.733183,-0.066,0.082,0.995,0.0,0.0,-0.183,-30.121,-50.843,-59.059,4.698,3.777,69.437,
800894627506,800892627506,800.894627506,800.892627506,1768551560.743407,-0.066,0.082,0.995,0.0,0.0,-0.183,-30.121,-50.843,-59.059,4.698,3.777,69.435,
800904852409,800902852409,800.904852409,800.902852409,1768551560.753629,-0.066,0.082,0.995,0.0,0.0,-0.183,-30.121,-50.83,-59.059,4.698,3.777,69.433,
800915081104,800913081104,800.915081104,800.913081104,1768551560.7638574,-0.066,0.082,0.995,0.0,0.0,-0.183,-30.134,-50.83,-59.072,4.698,3.777,69.431,
800925464974,800923464974,800.925464974,800.923464974,1768551560.774246,-0.066,0.082,0.995,0.0,0.0,-0.183,-30.134,-50.817,-59.059,4.698,3.777,69.429,
800935674126,800933674126,800.935674126,800.933674126,1768551560.7842793,-0.066,0.082,0.995,0.0,0.0,-0.183,-30.134,-50.817,-59.033,4.698,3.777,69.427,
800946062663,800944062663,800.946062663,800.944062663,1768551560.7946632,-0.066,0.082,0.995,0.0,0.0,-0.183,-30.147,-50.843,-59.046,4.698,3.777,69.425,
800956214645,800954214645,800.956214645,800.954214645,1768551560.8048837,-0.066,0.082,0.995,0.0,0.0,-0.183,-30.147,-50.83,-59.046,4.698,3.777,69.423,
800966474550,800964474550,800.96647455,800.96447455,1768551560.81512,-0.066,0.082,0.995,0.0,0.0,-0.122,-30.147,-50.83,-59.072,4.698,3.777,69.421,
800976621574,800974621574,800.976621574,800.974621574,1768551560.8253143,-0.066,0.082,0.995,0.0,0.0,-0.122,-30.134,-50.843,-59.072,4.698,3.777,69.419,
800987005735,800985005735,800.987005735,800.985005735,1768551560.835716,-0.066,0.082,0.995,0.0,0.0,-0.122,-30.134,-50.843,-59.059,4.698,3.777,69.417,
800997223638,800995223638,800.997223638,800.995223638,1768551560.8459241,-0.066,0.082,0.995,0.0,0.0,-0.183,-30.147,-50.856,-59.059,4.698,3.777,69.416,
801007425206,801005425206,801.007425206,801.005425206,1768551560.8561394,-0.066,0.082,0.995,0.0,0.0,-0.183,-30.134,-50.843,-59.059,4.698,3.777,69.414,
801017815493,801015815493,801.017815493,801.015815493,1768551560.8665304,-0.066,0.082,0.995,0.0,0.0,-0.183,-30.147,-50.856,-59.046,4.698,3.777,69.412,
801028028437,801026028437,801.028028437,801.026028437,1768551560.876747,-0.066,0.082,0.995,0.0,0.0,-0.122,-30.121,-50.856,-59.046,4.697,3.777,69.41,
801038280175,801036280175,801.038280175,801.036280175,1768551560.8869965,-0.066,0.082,0.995,0.0,0.0,-0.122,-30.108,-50.83,-59.02,4.697,3.777,69.408,
801048650919,801046650919,801.048650919,801.046650919,1768551560.897371,-0.066,0.082,0.995,0.0,0.0,-0.122,-30.108,-50.843,-59.033,4.697,3.777,69.406,
801058849279,801056849279,801.058849279,801.056849279,1768551560.9075649,-0.066,0.082,0.995,0.0,0.0,0.0,-30.121,-50.804,-59.046,4.697,3.777,69.404,
801069120851,801067120851,801.069120851,801.067120851,1768551560.9177842,-0.066,0.082,0.995,0.0,0.0,-0.183,-30.121,-50.83,-59.072,4.697,3.777,69.402,
801079291501,801077291501,801.079291501,801.077291501,1768551560.928007,-0.066,0.082,0.995,0.0,0.0,-0.183,-30.134,-50.817,-59.072,4.697,3.777,69.4,
801089675079,801087675079,801.089675079,801.087675079,1768551560.9383922,-0.066,0.082,0.995,0.0,0.0,-0.183,-30.134,-50.817,-59.059,4.697,3.777,69.399,
801099863230,801097863230,801.09986323,801.09786323,1768551560.9485767,-0.066,0.082,0.995,0.0,0.0,-0.183,-30.147,-50.83,-59.046,4.697,3.777,69.397,
801110117885,801108117885,801.110117885,801.108117885,1768551560.9588284,-0.066,0.082,0.995,0.0,0.0,-0.122,-30.134,-50.83,-59.046,4.697,3.777,69.395,
801120360872,801118360872,801.120360872,801.118360872,1768551560.9690533,-0.066,0.082,0.995,0.0,0.0,-0.183,-30.147,-50.817,-59.059,4.697,3.777,69.393,
801130552232,801128552232,801.130552232,801.128552232,1768551560.9792643,-0.066,0.082,0.995,0.0,0.0,-0.183,-30.134,-50.843,-59.046,4.697,3.777,69.391,
801140972270,801138972270,801.14097227,801.13897227,1768551560.9896677,-0.066,0.082,0.995,0.0,0.0,0.0,-30.147,-50.83,-59.033,4.697,3.777,69.389,
801151313762,801149313762,801.151313762,801.149313762,1768551560.9999275,-0.066,0.082,0.995,0.0,0.0,-0.183,-30.173,-50.843,-59.033,4.697,3.777,69.387,
801161760177,801159760177,801.161760177,801.159760177,1768551561.0103397,-0.066,0.082,0.995,0.0,0.0,-0.183,-30.147,-50.843,-59.098,4.697,3.777,69.385,
801177967930,801175967930,801.17796793,801.17596793,1768551561.0209339,-0.066,0.082,0.995,0.0,0.0,-0.183,-30.108,-50.843,-59.228,4.697,3.777,69.383,
801182428036,801180428036,801.182428036,801.180428036,1768551561.0311692,-0.066,0.082,0.995,0.0,0.0,-0.183,-30.095,-50.83,-59.241,4.697,3.777,69.381,
801193169049,801191169049,801.193169049,801.191169049,1768551561.0418892,-0.066,0.082,0.995,0.0,0.0,-0.183,-30.082,-50.83,-59.137,4.697,3.777,69.379,
801203526959,801201526959,801.203526959,801.201526959,1768551561.0522351,-0.066,0.082,0.995,0.0,0.0,-0.183,-30.121,-50.804,-59.098,4.697,3.777,69.377,
801213703734,801211703734,801.213703734,801.211703734,1768551561.062455,-0.066,0.082,0.995,0.0,0.0,-0.183,-30.134,-50.804,-59.072,4.697,3.777,69.375,
801223995724,801221995724,801.223995724,801.221995724,1768551561.0726554,-0.066,0.082,0.995,0.0,0.0,-0.183,-30.134,-50.804,-59.072,4.697,3.777,69.373,
801234484891,801232484891,801.234484891,801.232484891,1768551561.083176,-0.066,0.082,0.995,0.0,0.0,-0.183,-30.134,-50.804,-59.085,4.697,3.777,69.371,
801244726128,801242726128,801.244726128,801.242726128,1768551561.0934002,-0.066,0.082,0.995,0.0,0.0,-0.183,-30.134,-50.791,-59.124,4.697,3.777,69.369,
801254841942,801252841942,801.254841942,801.252841942,1768551561.1035438,-0.066,0.082,0.995,0.0,0.0,0.0,-30.108,-50.778,-59.202,4.697,3.777,69.367,
801265035052,801263035052,801.265035052,801.263035052,1768551561.1137562,-0.066,0.082,0.995,0.0,0.0,-0.122,-30.108,-50.817,-59.137,4.697,3.777,69.365,
801275262288,801273262288,801.275262288,801.273262288,1768551561.12398,-0.066,0.082,0.995,0.0,0.0,-0.183,-30.121,-50.817,-59.085,4.697,3.777,69.364,
801285519276,801283519276,801.285519276,801.283519276,1768551561.134211,-0.066,0.082,0.995,0.0,0.0,-0.183,-30.121,-50.83,-59.059,4.697,3.777,69.362,
801295696052,801293696052,801.295696052,801.293696052,1768551561.1444168,-0.066,0.082,0.995,0.0,0.0,-0.183,-30.121,-50.856,-59.072,4.697,3.777,69.36,
801305867577,801303867577,801.305867577,801.303867577,1768551561.1545837,-0.066,0.082,0.995,0.0,0.0,-0.183,-30.121,-50.843,-59.046,4.697,3.777,69.358,
801316144691,801314144691,801.316144691,801.314144691,1768551561.1648486,-0.066,0.082,0.995,0.0,0.0,-0.183,-30.134,-50.856,-59.072,4.697,3.777,69.356,
801326383595,801324383595,801.326383595,801.324383595,1768551561.1750646,-0.066,0.082,0.995,0.0,0.0,-0.183,-30.147,-50.843,-59.085,4.697,3.777,69.354,
801336788466,801334788466,801.336788466,801.334788466,1768551561.185485,-0.066,0.082,0.995,0.0,0.0,-0.183,-30.134,-50.817,-59.085,4.697,3.777,69.352,
801346918864,801344918864,801.346918864,801.344918864,1768551561.195628,-0.066,0.082,0.995,0.0,0.0,-0.183,-30.173,-50.83,-59.046,4.697,3.777,69.35,
801357170893,801355170893,801.357170893,801.355170893,1768551561.2058852,-0.066,0.082,0.995,0.0,0.0,-0.183,-30.147,-50.817,-59.046,4.697,3.777,69.348,
801367386754,801365386754,801.367386754,801.365386754,1768551561.216103,-0.066,0.082,0.995,0.0,0.0,-0.183,-30.147,-50.817,-59.059,4.697,3.777,69.346,
801377623908,801375623908,801.377623908,801.375623908,1768551561.226338,-0.066,0.082,0.995,0.0,0.0,-0.183,-30.134,-50.817,-59.059,4.697,3.777,69.344,
801388220997,801386220997,801.388220997,801.386220997,1768551561.236713,-0.066,0.082,0.995,0.0,0.0,-0.122,-30.134,-50.804,-59.072,4.697,3.777,69.342,
801398758583,801396758583,801.398758583,801.396758583,1768551561.2473545,-0.066,0.082,0.995,0.0,0.0,-0.122,-30.134,-50.817,-59.137,4.697,3.777,69.34,
801409459219,801407459219,801.409459219,801.407459219,1768551561.2581584,-0.066,0.082,0.995,0.0,0.0,-0.183,-30.043,-50.817,-59.241,4.697,3.777,69.338,
801420015764,801418015764,801.420015764,801.418015764,1768551561.2687216,-0.066,0.082,0.995,0.0,0.0,-0.183,-30.069,-50.804,-59.176,4.697,3.777,69.336,
801430264877,801428264877,801.430264877,801.428264877,1768551561.2789788,-0.066,0.082,0.995,0.0,0.0,-0.183,-30.082,-50.83,-59.137,4.697,3.777,69.334,
801440422693,801438422693,801.440422693,801.438422693,1768551561.2891371,-0.066,0.082,0.995,0.0,0.0,-0.183,-30.121,-50.817,-59.098,4.697,3.777,69.332,
801450635929,801448635929,801.450635929,801.448635929,1768551561.2993531,-0.066,0.082,0.995,0.0,0.0,-0.183,-30.121,-50.817,-59.059,4.697,3.777,69.33,
801460852956,801458852956,801.460852956,801.458852956,1768551561.3095675,-0.066,0.082,0.995,0.0,0.0,0.0,-30.134,-50.817,-59.085,4.697,3.777,69.328,
801471074651,801469074651,801.471074651,801.469074651,1768551561.319785,-0.066,0.082,0.995,0.0,0.0,-0.183,-30.108,-50.83,-59.085,4.697,3.777,69.326,
801481331347,801479331347,801.481331347,801.479331347,1768551561.3300214,-0.066,0.082,0.995,0.0,0.0,-0.122,-30.108,-50.804,-59.072,4.697,3.777,69.324,
801491613045,801489613045,801.491613045,801.489613045,1768551561.340262,-0.066,0.082,0.995,0.0,0.0,-0.183,-30.108,-50.804,-59.085,4.697,3.777,69.322,
801502044458,801500044458,801.502044458,801.500044458,1768551561.3506317,-0.066,0.082,0.995,0.0,0.0,0.0,-30.134,-50.791,-59.085,4.697,3.777,69.321,
801512138021,801510138021,801.512138021,801.510138021,1768551561.3608482,-0.066,0.082,0.995,0.0,0.0,-0.183,-30.108,-50.817,-59.15,4.697,3.777,69.319,
801522356799,801520356799,801.522356799,801.520356799,1768551561.371045,-0.066,0.082,0.995,0.0,0.0,-0.183,-30.121,-50.804,-59.098,4.697,3.777,69.317,
801532545242,801530545242,801.532545242,801.530545242,1768551561.381261,-0.066,0.082,0.995,0.0,0.0,-0.183,-30.108,-50.804,-59.098,4.697,3.777,69.315,
801542770145,801540770145,801.542770145,801.540770145,1768551561.3914824,-0.066,0.082,0.995,0.0,0.0,0.0,-30.147,-50.804,-59.085,4.697,3.777,69.313,
801553150223,801551150223,801.553150223,801.551150223,1768551561.401868,-0.066,0.082,0.995,0.0,0.0,-0.183,-30.134,-50.804,-59.033,4.697,3.777,69.311,
801564368302,801562368302,801.564368302,801.562368302,1768551561.4123492,-0.066,0.082,0.995,0.0,0.0,-0.183,-30.121,-50.817,-59.033,4.697,3.777,69.309,
801573897252,801571897252,801.573897252,801.571897252,1768551561.4224994,-0.066,0.082,0.995,0.0,0.0,-0.183,-30.108,-50.843,-59.137,4.697,3.777,69.307,
801583661882,801581661882,801.583661882,801.581661882,1768551561.432365,-0.066,0.082,0.995,0.0,0.0,-0.183,-30.069,-50.817,-59.215,4.697,3.777,69.305,
801593847408,801591847408,801.593847408,801.591847408,1768551561.442563,-0.066,0.082,0.995,0.0,0.0,-0.183,-30.069,-50.83,-59.124,4.697,3.777,69.303,
801604275321,801602275321,801.604275321,801.602275321,1768551561.4529884,-0.066,0.082,0.995,0.0,0.0,-0.183,-30.095,-50.83,-59.085,4.697,3.777,69.301,
801614467556,801612467556,801.614467556,801.612467556,1768551561.4631817,-0.066,0.082,0.995,0.0,0.0,-0.183,-30.121,-50.843,-59.059,4.697,3.777,69.299,
801624551285,801622551285,801.624551285,801.622551285,1768551561.4732294,-0.066,0.082,0.995,0.0,0.0,-0.183,-30.134,-50.843,-59.059,4.697,3.777,69.297,
801636726664,801634726664,801.636726664,801.634726664,1768551561.4843616,-0.066,0.082,0.995,0.0,0.0,-0.183,-30.108,-50.83,-59.046,4.697,3.777,69.295,
801650050685,801648050685,801.650050685,801.648050685,1768551561.4944701,-0.066,0.082,0.995,0.0,0.0,-0.183,-30.095,-50.83,-59.124,4.697,3.777,69.293,
801655833859,801653833859,801.655833859,801.653833859,1768551561.5045445,-0.066,0.082,0.995,0.0,0.0,0.0,-30.069,-50.817,-59.176,4.697,3.777,69.291,
801666332651,801664332651,801.666332651,801.664332651,1768551561.5149236,-0.066,0.082,0.995,0.0,0.0,-0.183,-30.108,-50.791,-59.124,4.697,3.777,69.289,
801676483759,801674483759,801.676483759,801.674483759,1768551561.5252028,-0.066,0.082,0.995,0.0,0.0,-0.183,-30.121,-50.804,-59.176,4.697,3.777,69.287,
801686740455,801684740455,801.686740455,801.684740455,1768551561.5353816,-0.066,0.082,0.995,0.0,0.0,-0.122,-30.095,-50.804,-59.215,4.697,3.777,69.286,
801696965066,801694965066,801.696965066,801.694965066,1768551561.5456738,-0.066,0.082,0.995,0.0,0.0,0.0,-30.134,-50.804,-59.163,4.697,3.777,69.284,
801707198428,801705198428,801.707198428,801.705198428,1768551561.5559132,-0.066,0.082,0.995,0.0,0.0,-0.183,-30.121,-50.817,-59.085,4.697,3.777,69.282,
801717412831,801715412831,801.717412831,801.715412831,1768551561.566124,-0.066,0.082,0.995,0.0,0.0,-0.183,-30.121,-50.83,-59.059,4.697,3.777,69.28,
801727857953,801725857953,801.727857953,801.725857953,1768551561.5764904,-0.066,0.082,0.995,0.0,0.0,-0.183,-30.108,-50.843,-59.059,4.697,3.777,69.278,
801738036187,801736036187,801.738036187,801.736036187,1768551561.5866046,-0.066,0.082,0.995,0.0,0.0,-0.183,-30.095,-50.83,-59.137,4.697,3.777,69.276,
801748083748,801746083748,801.748083748,801.746083748,1768551561.596763,-0.066,0.082,0.995,0.0,0.0,-0.122,-30.069,-50.843,-59.215,4.697,3.777,69.274,
801758519829,801756519829,801.758519829,801.756519829,1768551561.607235,-0.066,0.082,0.995,0.0,0.0,-0.122,-30.056,-50.817,-59.111,4.697,3.777,69.272,
801768737731,801766737731,801.768737731,801.766737731,1768551561.617437,-0.066,0.082,0.995,0.0,0.0,-0.183,-30.095,-50.817,-59.046,4.696,3.777,69.27,
801778940466,801776940466,801.778940466,801.776940466,1768551561.6276565,-0.066,0.082,0.995,0.0,0.0,-0.183,-30.147,-50.817,-59.033,4.696,3.777,69.268,
801789160119,801787160119,801.789160119,801.787160119,1768551561.6378763,-0.066,0.082,0.995,0.0,0.0,-0.183,-30.134,-50.83,-59.02,4.696,3.777,69.266,
801799381230,801797381230,801.79938123,801.79738123,1768551561.6481063,-0.066,0.082,0.995,0.0,0.0,-0.183,-30.16,-50.804,-59.02,4.696,3.777,69.264,
801809979194,801807979194,801.809979194,801.807979194,1768551561.6585603,-0.066,0.082,0.995,0.0,0.0,-0.183,-30.147,-50.817,-59.02,4.696,3.777,69.263,
801820169679,801818169679,801.820169679,801.818169679,1768551561.6689293,-0.066,0.082,0.995,0.0,0.0,-0.183,-30.121,-50.817,-59.15,4.696,3.777,69.26,
801831319213,801829319213,801.831319213,801.829319213,1768551561.68004,-0.066,0.082,0.995,0.0,0.0,-0.183,-30.108,-50.83,-59.046,4.696,3.777,69.258,
801841318646,801839318646,801.841318646,801.839318646,1768551561.6900399,-0.066,0.082,0.995,0.0,0.0,-0.122,-30.121,-50.83,-59.033,4.696,3.777,69.257,
801851760852,801849760852,801.851760852,801.849760852,1768551561.700444,-0.066,0.082,0.995,0.0,0.0,-0.122,-30.121,-50.83,-59.007,4.697,3.777,69.255,
801861778078,801859778078,801.861778078,801.859778078,1768551561.7104666,-0.066,0.082,0.995,0.0,0.0,-0.122,-30.134,-50.83,-59.007,4.697,3.777,69.253,
801871965646,801869965646,801.871965646,801.869965646,1768551561.720683,-0.066,0.082,0.995,0.0,0.0,-0.122,-30.134,-50.856,-59.033,4.697,3.777,69.251,
801882199882,801880199882,801.882199882,801.880199882,1768551561.7309163,-0.066,0.082,0.995,0.0,0.0,-0.122,-30.134,-50.83,-59.033,4.697,3.777,69.249,
801892608253,801890608253,801.892608253,801.890608253,1768551561.7413058,-0.066,0.082,0.995,0.0,0.0,-0.122,-30.134,-50.83,-59.046,4.697,3.777,69.247,
801902796113,801900796113,801.902796113,801.900796113,1768551561.7515147,-0.066,0.082,0.995,0.0,0.0,-0.122,-30.134,-50.83,-59.046,4.697,3.777,69.246,
801913002348,801911002348,801.913002348,801.911002348,1768551561.7617266,-0.066,0.082,0.995,0.0,0.0,-0.122,-30.121,-50.817,-59.059,4.697,3.777,69.244,
801923325840,801921325840,801.92332584,801.92132584,1768551561.7720027,-0.066,0.082,0.995,0.0,0.0,-0.122,-30.121,-50.817,-59.111,4.697,3.777,69.242,
801933660707,801931660707,801.933660707,801.931660707,1768551561.782365,-0.066,0.082,0.995,0.0,0.0,-0.183,-30.108,-50.817,-59.202,4.697,3.777,69.24,
801943896402,801941896402,801.943896402,801.941896402,1768551561.7925587,-0.066,0.082,0.995,0.0,0.0,0.0,-30.108,-50.804,-59.189,4.697,3.777,69.238,
801954069969,801952069969,801.954069969,801.952069969,1768551561.8027847,-0.066,0.082,0.995,0.0,0.0,-0.183,-30.121,-50.817,-59.137,4.697,3.777,69.236,
801964461131,801962461131,801.964461131,801.962461131,1768551561.8131733,-0.066,0.082,0.995,0.0,0.0,-0.183,-30.147,-50.804,-59.072,4.697,3.777,69.234,
801974691576,801972691576,801.974691576,801.972691576,1768551561.8233845,-0.066,0.082,0.995,0.0,0.0,-0.183,-30.134,-50.83,-59.072,4.697,3.777,69.232,
801984909478,801982909478,801.984909478,801.982909478,1768551561.8336108,-0.066,0.082,0.995,0.0,0.0,0.0,-30.134,-50.817,-59.072,4.697,3.777,69.23,
801995106380,801993106380,801.99510638,801.99310638,1768551561.8438177,-0.066,0.082,0.995,0.0,0.0,-0.183,-30.134,-50.83,-59.085,4.697,3.777,69.228,
802005500458,802003500458,802.005500458,802.003500458,1768551561.8542016,-0.066,0.082,0.995,0.0,0.0,-0.183,-30.134,-50.83,-59.072,4.697,3.777,69.226,
802015727403,802013727403,802.015727403,802.013727403,1768551561.864427,-0.066,0.082,0.995,0.0,0.0,-0.183,-30.147,-50.83,-59.085,4.697,3.777,69.224,
802026120023,802024120023,802.026120023,802.024120023,1768551561.8748105,-0.066,0.082,0.995,0.0,0.0,-0.183,-30.16,-50.83,-59.072,4.697,3.777,69.222,
802036344051,802034344051,802.036344051,802.034344051,1768551561.885048,-0.066,0.082,0.995,0.0,0.0,-0.183,-30.134,-50.83,-59.072,4.697,3.777,69.22,
802046526952,802044526952,802.046526952,802.044526952,1768551561.8952434,-0.066,0.082,0.995,0.0,0.0,-0.183,-30.134,-50.843,-59.059,4.697,3.777,69.219,
802056739021,802054739021,802.056739021,802.054739021,1768551561.9054601,-0.066,0.082,0.995,0.0,0.0,-0.183,-30.121,-50.817,-59.059,4.697,3.777,69.217,
802067131058,802065131058,802.067131058,802.065131058,1768551561.9158537,-0.066,0.082,0.995,0.0,0.0,-0.122,-30.121,-50.791,-59.059,4.697,3.777,69.215,
802083890507,802081890507,802.083890507,802.081890507,1768551561.9266722,-0.066,0.082,0.995,0.0,0.0,-0.122,-30.134,-50.804,-59.046,4.697,3.777,69.213,
802088740299,802086740299,802.088740299,802.086740299,1768551561.9373443,-0.066,0.082,0.995,0.0,0.0,-0.122,-30.134,-50.817,-59.124,4.697,3.777,69.211,
802100703333,802098703333,802.100703333,802.098703333,1768551561.9494185,-0.066,0.082,0.995,0.0,0.0,-0.122,-30.134,-50.804,-59.111,4.697,3.777,69.209,
802110915986,802108915986,802.110915986,802.108915986,1768551561.9595873,-0.066,0.082,0.995,0.0,0.0,0.0,-30.134,-50.817,-59.033,4.697,3.777,69.207,
802121154014,802119154014,802.121154014,802.119154014,1768551561.9698453,-0.066,0.082,0.995,0.0,0.0,-0.122,-30.173,-50.83,-59.02,4.697,3.777,69.205,
802131355583,802129355583,802.131355583,802.129355583,1768551561.9800558,-0.066,0.082,0.995,0.0,0.0,-0.122,-30.147,-50.856,-58.981,4.697,3.777,69.203,
802141580486,802139580486,802.141580486,802.139580486,1768551561.9902935,-0.066,0.082,0.995,0.0,0.0,-0.183,-30.147,-50.843,-59.007,4.697,3.777,69.201,
802151794013,802149794013,802.151794013,802.149794013,1768551562.0004926,-0.066,0.082,0.995,0.0,0.0,-0.183,-30.147,-50.856,-59.007,4.697,3.777,69.199,
802162019792,802160019792,802.162019792,802.160019792,1768551562.010716,-0.066,0.082,0.995,0.0,0.0,0.0,-30.16,-50.843,-58.981,4.697,3.777,69.198,
802172254028,802170254028,802.172254028,802.170254028,1768551562.0209363,-0.066,0.082,0.995,0.0,0.0,-0.183,-30.134,-50.843,-58.981,4.697,3.777,69.195,
802182443346,802180443346,802.182443346,802.180443346,1768551562.0311484,-0.066,0.082,0.995,0.0,0.0,-0.183,-30.134,-50.83,-58.994,4.697,3.777,69.194,
802192662999,802190662999,802.192662999,802.190662999,1768551562.041371,-0.066,0.082,0.995,0.0,0.0,-0.183,-30.147,-50.83,-59.007,4.697,3.777,69.192,
802202870693,802200870693,802.202870693,802.200870693,1768551562.0515833,-0.066,0.082,0.995,0.0,0.0,0.0,-30.134,-50.817,-59.02,4.697,3.777,69.19,
802213062344,802211062344,802.213062344,802.211062344,1768551562.0617685,-0.066,0.082,0.995,0.0,0.0,-0.183,-30.134,-50.83,-59.007,4.697,3.777,69.188,
802223312915,802221312915,802.223312915,802.221312915,1768551562.0720172,-0.066,0.082,0.995,0.0,0.0,-0.183,-30.16,-50.817,-59.007,4.697,3.777,69.186,
802233547735,802231547735,802.233547735,802.231547735,1768551562.0822077,-0.066,0.082,0.995,0.0,0.0,-0.183,-30.173,-50.83,-59.007,4.697,3.777,69.184,
802243697968,802241697968,802.243697968,802.241697968,1768551562.092418,-0.066,0.082,0.995,0.0,0.0,-0.183,-30.16,-50.83,-58.994,4.697,3.777,69.182,
802254480275,802252480275,802.254480275,802.252480275,1768551562.1030557,-0.066,0.082,0.995,0.0,0.0,-0.183,-30.134,-50.83,-59.007,4.697,3.777,69.18,
802264870853,802262870853,802.264870853,802.262870853,1768551562.1134646,-0.066,0.082,0.995,0.0,0.0,-0.122,-30.147,-50.83,-59.124,4.697,3.777,69.178,
802274705778,802272705778,802.274705778,802.272705778,1768551562.1234207,-0.066,0.082,0.995,0.0,0.0,-0.122,-30.108,-50.817,-59.189,4.697,3.777,69.176,
802284940890,802282940890,802.28494089,802.28294089,1768551562.133654,-0.066,0.082,0.995,0.0,0.0,-0.122,-30.134,-50.804,-59.124,4.697,3.777,69.175,
802295136624,802293136624,802.295136624,802.293136624,1768551562.1438522,-0.066,0.082,0.995,0.0,0.0,-0.122,-30.134,-50.817,-59.072,4.697,3.777,69.173,
802305347527,802303347527,802.305347527,802.303347527,1768551562.154066,-0.066,0.082,0.995,0.0,0.0,-0.122,-30.147,-50.83,-59.046,4.697,3.777,69.171,
802315577972,802313577972,802.315577972,802.313577972,1768551562.1642942,-0.066,0.082,0.995,0.0,0.0,-0.122,-30.134,-50.83,-59.046,4.697,3.777,69.169,
802325795874,802323795874,802.325795874,802.323795874,1768551562.1745093,-0.066,0.082,0.995,0.0,0.0,-0.122,-30.121,-50.804,-59.059,4.697,3.777,69.167,
802336007360,802334007360,802.33600736,802.33400736,1768551562.1847267,-0.066,0.082,0.995,0.0,0.0,-0.122,-30.121,-50.791,-59.072,4.697,3.777,69.165,
802346179760,802344179760,802.34617976,802.34417976,1768551562.1948953,-0.066,0.082,0.995,0.0,0.0,-0.183,-30.134,-50.817,-59.033,4.697,3.777,69.163,
802356627217,802354627217,802.356627217,802.354627217,1768551562.2053304,-0.066,0.082,0.995,0.0,0.0,-0.183,-30.16,-50.804,-59.02,4.697,3.777,69.162,
802366834035,802364834035,802.366834035,802.364834035,1768551562.2155504,-0.066,0.082,0.995,0.0,0.0,-0.183,-30.16,-50.804,-59.033,4.697,3.777,69.16,
802377060689,802375060689,802.377060689,802.375060689,1768551562.2257771,-0.066,0.082,0.995,0.0,0.0,-0.183,-30.147,-50.817,-59.046,4.697,3.777,69.158,
802387319718,802385319718,802.387319718,802.385319718,1768551562.236033,-0.066,0.082,0.995,0.0,0.0,-0.183,-30.147,-50.817,-59.02,4.697,3.777,69.156,
802397506994,802395506994,802.397506994,802.395506994,1768551562.2462206,-0.066,0.082,0.995,0.0,0.0,-0.183,-30.147,-50.804,-59.046,4.697,3.777,69.154,
802407831653,802405831653,802.407831653,802.405831653,1768551562.2565417,-0.066,0.082,0.995,0.0,0.0,-0.183,-30.134,-50.843,-59.059,4.697,3.777,69.152,
802417949509,802415949509,802.417949509,802.415949509,1768551562.2666473,-0.066,0.082,0.995,0.0,0.0,-0.183,-30.147,-50.843,-59.007,4.697,3.777,69.15,
802428206497,802426206497,802.428206497,802.426206497,1768551562.2769098,-0.066,0.082,0.995,0.0,0.0,-0.183,-30.134,-50.83,-59.007,4.697,3.777,69.148,
802438407773,802436407773,802.438407773,802.436407773,1768551562.2871242,-0.066,0.082,0.995,0.0,0.0,-0.122,-30.147,-50.83,-59.02,4.697,3.777,69.146,
802448620134,802446620134,802.448620134,802.446620134,1768551562.2973406,-0.066,0.082,0.995,0.0,0.0,-0.122,-30.16,-50.817,-59.02,4.697,3.777,69.144,
802458881206,802456881206,802.458881206,802.456881206,1768551562.3075724,-0.066,0.082,0.995,0.0,0.0,-0.122,-30.134,-50.804,-59.007,4.697,3.777,69.142,
802469063232,802467063232,802.469063232,802.467063232,1768551562.3177748,-0.066,0.082,0.995,0.0,0.0,-0.122,-30.108,-50.83,-59.033,4.697,3.777,69.141,
802479328387,802477328387,802.479328387,802.477328387,1768551562.3280134,-0.066,0.082,0.995,0.0,0.0,-0.122,-30.108,-50.817,-59.046,4.697,3.777,69.139,
802489540164,802487540164,802.489540164,802.487540164,1768551562.3382204,-0.066,0.082,0.995,0.0,0.0,-0.122,-30.121,-50.817,-59.046,4.697,3.777,69.137,
802499735024,802497735024,802.499735024,802.497735024,1768551562.3484507,-0.066,0.082,0.995,0.0,0.0,-0.122,-30.121,-50.817,-59.072,4.697,3.777,69.135,
802509963427,802507963427,802.509963427,802.507963427,1768551562.358661,-0.066,0.082,0.995,0.0,0.0,0.0,-30.095,-50.817,-59.059,4.697,3.777,69.133,
802520534265,802518534265,802.520534265,802.518534265,1768551562.369138,-0.066,0.082,0.995,0.0,0.0,-0.183,-30.108,-50.804,-59.072,4.697,3.777,69.131,
802531897601,802529897601,802.531897601,802.529897601,1768551562.3804777,-0.066,0.082,0.995,0.0,0.0,-0.122,-30.108,-50.817,-59.163,4.697,3.776,69.129,
802541635396,802539635396,802.541635396,802.539635396,1768551562.390332,-0.066,0.082,0.995,0.0,0.0,-0.122,-30.082,-50.817,-59.215,4.697,3.776,69.127,
802551831714,802549831714,802.551831714,802.549831714,1768551562.4005468,-0.066,0.082,0.995,0.0,0.0,-0.122,-30.069,-50.83,-59.098,4.697,3.776,69.125,
802562065659,802560065659,802.562065659,802.560065659,1768551562.410763,-0.066,0.082,0.995,0.0,0.0,-0.122,-30.121,-50.83,-59.072,4.697,3.776,69.123,
802572269561,802570269561,802.572269561,802.570269561,1768551562.4209456,-0.066,0.082,0.995,0.0,0.0,-0.122,-30.108,-50.843,-59.033,4.697,3.776,69.122,
802582444879,802580444879,802.582444879,802.580444879,1768551562.43116,-0.066,0.082,0.995,0.0,0.0,-0.183,-30.134,-50.843,-59.007,4.697,3.776,69.12,
802592872792,802590872792,802.592872792,802.590872792,1768551562.441586,-0.066,0.082,0.995,0.0,0.0,-0.183,-30.147,-50.856,-58.994,4.697,3.776,69.118,
802603115779,802601115779,802.603115779,802.601115779,1768551562.4517984,-0.066,0.082,0.995,0.0,0.0,-0.183,-30.121,-50.843,-58.994,4.697,3.776,69.116,
802613336016,802611336016,802.613336016,802.611336016,1768551562.462005,-0.066,0.082,0.995,0.0,0.0,-0.183,-30.108,-50.83,-59.007,4.697,3.776,69.114,
802623892852,802621892852,802.623892852,802.621892852,1768551562.472494,-0.066,0.082,0.995,0.0,0.0,-0.183,-30.121,-50.83,-59.033,4.697,3.776,69.112,
802634018584,802632018584,802.634018584,802.632018584,1768551562.4826586,-0.066,0.082,0.995,0.0,0.0,-0.122,-30.108,-50.83,-59.137,4.697,3.776,69.11,
802643947138,802641947138,802.643947138,802.641947138,1768551562.4926605,-0.066,0.082,0.995,0.0,0.0,0.0,-30.095,-50.804,-59.189,4.697,3.776,69.108,
802654361634,802652361634,802.654361634,802.652361634,1768551562.5030823,-0.066,0.082,0.995,0.0,0.0,-0.122,-30.095,-50.804,-59.124,4.697,3.776,69.107,
802664398986,802662398986,802.664398986,802.662398986,1768551562.5130982,-0.066,0.082,0.995,0.0,0.0,-0.122,-30.108,-50.817,-59.111,4.697,3.776,69.105,
802674620097,802672620097,802.674620097,802.672620097,1768551562.523338,-0.066,0.082,0.995,0.0,0.0,-0.122,-30.121,-50.817,-59.085,4.697,3.776,69.103,
802684993758,802682993758,802.684993758,802.682993758,1768551562.5337062,-0.066,0.082,0.995,0.0,0.0,0.0,-30.121,-50.817,-59.072,4.697,3.776,69.101,
802696093998,802694093998,802.696093998,802.694093998,1768551562.5446944,-0.066,0.082,0.995,0.0,0.0,-0.122,-30.121,-50.83,-59.072,4.697,3.776,69.099,
802706381904,802704381904,802.706381904,802.704381904,1768551562.554887,-0.066,0.082,0.995,0.0,0.0,-0.122,-30.121,-50.83,-59.189,4.697,3.776,69.097,
802716003901,802714003901,802.716003901,802.714003901,1768551562.5647144,-0.066,0.082,0.995,0.0,0.0,-0.183,-30.095,-50.817,-59.241,4.697,3.776,69.095,
802748379115,802746379115,802.748379115,802.746379115,1768551562.5966308,-0.066,0.082,0.995,0.0,0.0,-0.183,-30.069,-50.817,-59.202,4.697,3.776,69.089,
802758018321,802756018321,802.758018321,802.756018321,1768551562.6067326,-0.066,0.082,0.995,0.0,0.0,-0.183,-30.082,-50.791,-59.189,4.697,3.776,69.088,
802768067340,802766067340,802.76806734,802.76606734,1768551562.6167874,-0.066,0.082,0.995,0.0,0.0,-0.183,-30.108,-50.791,-59.111,4.697,3.776,69.086,
802778442167,802776442167,802.778442167,802.776442167,1768551562.627137,-0.066,0.082,0.995,0.0,0.0,-0.183,-30.121,-50.791,-59.059,4.697,3.776,69.084,
802788800577,802786800577,802.788800577,802.786800577,1768551562.637377,-0.066,0.082,0.995,0.0,0.0,-0.183,-30.134,-50.804,-59.046,4.697,3.776,69.082,
802799074608,802797074608,802.799074608,802.797074608,1768551562.6477902,-0.066,0.082,0.995,0.0,0.0,-0.183,-30.121,-50.804,-59.124,4.697,3.776,69.08,
802809340638,802807340638,802.809340638,802.807340638,1768551562.6580517,-0.066,0.082,0.995,0.0,0.0,-0.183,-30.108,-50.804,-59.124,4.697,3.776,69.078,
802819546873,802817546873,802.819546873,802.817546873,1768551562.668201,-0.066,0.082,0.995,0.0,0.0,-0.183,-30.121,-50.817,-59.098,4.697,3.776,69.076,
802829705856,802827705856,802.829705856,802.827705856,1768551562.6784241,-0.066,0.082,0.995,0.0,0.0,-0.183,-30.121,-50.817,-59.098,4.697,3.776,69.074,
802839918800,802837918800,802.8399188,802.8379188,1768551562.688644,-0.066,0.082,0.995,0.0,0.0,-0.122,-30.121,-50.817,-59.085,4.697,3.776,69.072,
802850337672,802848337672,802.850337672,802.848337672,1768551562.699052,-0.066,0.082,0.995,0.0,0.0,-0.122,-30.095,-50.83,-59.085,4.697,3.776,69.07,
802860558783,802858558783,802.860558783,802.858558783,1768551562.7092564,-0.066,0.082,0.995,0.0,0.0,-0.122,-30.121,-50.817,-59.072,4.697,3.776,69.069,
802871107744,802869107744,802.871107744,802.869107744,1768551562.7197125,-0.066,0.082,0.995,0.0,0.0,-0.122,-30.121,-50.83,-59.072,4.697,3.776,69.067,
802881331772,802879331772,802.881331772,802.879331772,1768551562.7299163,-0.066,0.082,0.995,0.0,0.0,-0.122,-30.108,-50.817,-59.15,4.697,3.776,69.065,
802891316413,802889316413,802.891316413,802.889316413,1768551562.7400467,-0.066,0.082,0.995,0.0,0.0,-0.183,-30.095,-50.83,-59.137,4.697,3.776,69.063,
802901630279,802899630279,802.901630279,802.899630279,1768551562.7503128,-0.066,0.082,0.995,0.0,0.0,-0.183,-30.095,-50.804,-59.085,4.697,3.776,69.061,
802911811430,802909811430,802.91181143,802.90981143,1768551562.7605157,-0.066,0.082,0.995,0.0,0.0,-0.122,-30.108,-50.817,-59.02,4.697,3.776,69.059,
802922022624,802920022624,802.922022624,802.920022624,1768551562.7707334,-0.066,0.082,0.995,0.0,0.0,0.0,-30.16,-50.791,-58.994,4.697,3.776,69.057,
802932244027,802930244027,802.932244027,802.930244027,1768551562.7809513,-0.066,0.082,0.995,0.0,0.0,-0.122,-30.134,-50.804,-58.981,4.697,3.776,69.056,
802942471555,802940471555,802.942471555,802.940471555,1768551562.791185,-0.066,0.082,0.995,0.0,0.0,-0.183,-30.16,-50.804,-58.968,4.697,3.776,69.054,
802952859508,802950859508,802.952859508,802.950859508,1768551562.801559,-0.066,0.082,0.995,0.0,0.0,-0.183,-30.16,-50.817,-58.981,4.697,3.776,69.052,
802963043575,802961043575,802.963043575,802.961043575,1768551562.8117669,-0.066,0.082,0.995,0.0,0.0,-0.122,-30.147,-50.804,-58.994,4.697,3.776,69.05,
802974918230,802972918230,802.97491823,802.97291823,1768551562.822313,-0.066,0.082,0.995,0.0,0.0,-0.122,-30.147,-50.83,-59.059,4.697,3.776,69.048,
802985389605,802983389605,802.985389605,802.983389605,1768551562.83408,-0.066,0.082,0.995,0.0,0.0,-0.183,-30.134,-50.83,-59.163,4.697,3.776,69.046,
802995614508,802993614508,802.995614508,802.993614508,1768551562.8443117,-0.066,0.082,0.995,0.0,0.0,-0.183,-30.121,-50.843,-59.137,4.697,3.776,69.044,
803005796242,803003796242,803.005796242,803.003796242,1768551562.85451,-0.066,0.082,0.995,0.0,0.0,-0.183,-30.134,-50.843,-59.085,4.697,3.776,69.042,
803015985268,803013985268,803.015985268,803.013985268,1768551562.864685,-0.066,0.082,0.995,0.0,0.0,-0.183,-30.108,-50.843,-59.059,4.697,3.776,69.04,
803026236714,803024236714,803.026236714,803.024236714,1768551562.8749547,-0.066,0.082,0.995,0.0,0.0,-0.183,-30.121,-50.83,-59.059,4.697,3.776,69.038,
803036659669,803034659669,803.036659669,803.034659669,1768551562.8853493,-0.066,0.082,0.995,0.0,0.0,-0.122,-30.121,-50.817,-59.072,4.697,3.776,69.036,
803046848403,803044848403,803.046848403,803.044848403,1768551562.8955657,-0.066,0.082,0.995,0.0,0.0,-0.122,-30.108,-50.804,-59.072,4.697,3.776,69.034,
803057227314,803055227314,803.057227314,803.055227314,1768551562.9059484,-0.066,0.082,0.995,0.0,0.0,-0.183,-30.121,-50.804,-59.085,4.697,3.776,69.032,
803067453968,803065453968,803.067453968,803.065453968,1768551562.916175,-0.066,0.082,0.995,0.0,0.0,-0.183,-30.095,-50.804,-59.072,4.697,3.776,69.031,
803077859713,803075859713,803.077859713,803.075859713,1768551562.926377,-0.066,0.082,0.995,0.0,0.0,-0.183,-30.108,-50.804,-59.072,4.697,3.776,69.029,
803088133911,803086133911,803.088133911,803.086133911,1768551562.9367502,-0.066,0.082,0.995,0.0,0.0,-0.183,-30.121,-50.817,-59.098,4.697,3.776,69.027,
803099003430,803097003430,803.09900343,803.09700343,1768551562.9471202,-0.066,0.082,0.995,0.0,0.0,-0.183,-30.082,-50.817,-59.176,4.697,3.776,69.024,
803108530922,803106530922,803.108530922,803.106530922,1768551562.9572177,-0.066,0.082,0.995,0.0,0.0,-0.183,-30.056,-50.817,-59.215,4.697,3.776,69.023,
803118734241,803116734241,803.118734241,803.116734241,1768551562.9674482,-0.066,0.082,0.995,0.0,0.0,-0.183,-30.056,-50.817,-59.124,4.697,3.776,69.021,
803129105276,803127105276,803.129105276,803.127105276,1768551562.9778202,-0.066,0.082,0.995,0.0,0.0,-0.183,-30.095,-50.843,-59.085,4.697,3.776,69.018,
803139375682,803137375682,803.139375682,803.137375682,1768551562.9880772,-0.066,0.082,0.995,0.0,0.0,-0.183,-30.134,-50.843,-59.046,4.697,3.776,69.016,
803149608169,803147608169,803.149608169,803.147608169,1768551562.9982626,-0.066,0.082,0.995,0.0,0.0,-0.183,-30.134,-50.843,-59.046,4.697,3.776,69.014,
803160124753,803158124753,803.160124753,803.158124753,1768551563.0087152,-0.066,0.082,0.995,0.0,0.0,-0.183,-30.147,-50.83,-59.046,4.697,3.776,69.013,
803170353448,803168353448,803.170353448,803.168353448,1768551563.0189533,-0.066,0.082,0.995,0.0,0.0,-0.122,-30.121,-50.843,-59.111,4.697,3.776,69.011,
803180218124,803178218124,803.180218124,803.178218124,1768551563.028933,-0.066,0.082,0.995,0.0,0.0,-0.122,-30.095,-50.804,-59.215,4.697,3.776,69.009,
803190584201,803188584201,803.190584201,803.188584201,1768551563.0392742,-0.066,0.082,0.995,0.0,0.0,-0.122,-30.108,-50.804,-59.085,4.697,3.776,69.007,
803200776144,803198776144,803.200776144,803.198776144,1768551563.0494788,-0.066,0.082,0.995,0.0,0.0,-0.122,-30.121,-50.778,-59.059,4.697,3.776,69.005,
803210994922,803208994922,803.210994922,803.208994922,1768551563.0596983,-0.066,0.082,0.995,0.0,0.0,0.0,-30.121,-50.791,-59.072,4.697,3.776,69.003,
803221093819,803219093819,803.221093819,803.219093819,1768551563.0698073,-0.066,0.082,0.995,0.0,0.0,-0.122,-30.134,-50.817,-59.072,4.697,3.776,69.001,
803231526399,803229526399,803.231526399,803.229526399,1768551563.0802374,-0.066,0.082,0.995,0.0,0.0,-0.183,-30.134,-50.817,-59.085,4.697,3.776,69.0,
803241832390,803239832390,803.24183239,803.23983239,1768551563.090447,-0.066,0.082,0.995,0.0,0.0,-0.183,-30.147,-50.83,-59.085,4.697,3.776,68.998,
803252113296,803250113296,803.252113296,803.250113296,1768551563.1008296,-0.066,0.082,0.995,0.0,0.0,0.0,-30.121,-50.83,-59.059,4.697,3.776,68.996,
803262397118,803260397118,803.262397118,803.260397118,1768551563.1111116,-0.066,0.082,0.995,0.0,0.0,-0.183,-30.147,-50.817,-59.072,4.697,3.776,68.994,
803272929162,803270929162,803.272929162,803.270929162,1768551563.1215231,-0.066,0.082,0.995,0.0,0.0,-0.183,-30.121,-50.83,-59.085,4.697,3.777,68.992,
803283312448,803281312448,803.283312448,803.281312448,1768551563.1319044,-0.066,0.082,0.995,0.0,0.0,-0.183,-30.108,-50.83,-59.137,4.697,3.777,68.99,
803292953988,803290953988,803.292953988,803.290953988,1768551563.141663,-0.066,0.082,0.995,0.0,0.0,-0.183,-30.082,-50.83,-59.202,4.697,3.777,68.988,
803303722878,803301722878,803.303722878,803.301722878,1768551563.1523209,-0.066,0.082,0.995,0.0,0.0,-0.183,-30.082,-50.817,-59.111,4.697,3.777,68.986,
803314031493,803312031493,803.314031493,803.312031493,1768551563.1625853,-0.066,0.082,0.995,0.0,0.0,-0.183,-30.095,-50.83,-59.202,4.697,3.777,68.984,
803323840750,803321840750,803.32384075,803.32184075,1768551563.1725488,-0.066,0.082,0.995,0.0,0.0,-0.183,-30.082,-50.804,-59.241,4.697,3.777,68.982,
803333950147,803331950147,803.333950147,803.331950147,1768551563.1826656,-0.066,0.082,0.995,0.0,0.0,-0.183,-30.082,-50.791,-59.163,4.697,3.777,68.98,
803344382727,803342382727,803.344382727,803.342382727,1768551563.1931033,-0.066,0.082,0.995,0.0,0.0,-0.122,-30.121,-50.778,-59.124,4.697,3.777,68.978,
803354684051,803352684051,803.354684051,803.352684051,1768551563.2033718,-0.066,0.082,0.995,0.0,0.0,-0.122,-30.134,-50.791,-59.111,4.697,3.777,68.976,
803364896995,803362896995,803.364896995,803.362896995,1768551563.2136068,-0.066,0.082,0.995,0.0,0.0,-0.122,-30.147,-50.791,-59.098,4.697,3.777,68.974,
803375265989,803373265989,803.375265989,803.373265989,1768551563.2239792,-0.066,0.082,0.995,0.0,0.0,-0.183,-30.134,-50.817,-59.111,4.697,3.777,68.972,
803385282631,803383282631,803.385282631,803.383282631,1768551563.2339888,-0.066,0.082,0.995,0.0,0.0,-0.183,-30.16,-50.817,-59.111,4.697,3.777,68.971,
803395544869,803393544869,803.395544869,803.393544869,1768551563.2442453,-0.066,0.082,0.995,0.0,0.0,-0.183,-30.147,-50.817,-59.098,4.697,3.777,68.969,
803405738271,803403738271,803.405738271,803.403738271,1768551563.2544591,-0.066,0.082,0.995,0.0,0.0,-0.183,-30.147,-50.817,-59.098,4.697,3.777,68.967,
803416164434,803414164434,803.416164434,803.414164434,1768551563.2648547,-0.066,0.082,0.995,0.0,0.0,-0.183,-30.134,-50.804,-59.098,4.697,3.777,68.965,
803426404797,803424404797,803.426404797,803.424404797,1768551563.2751217,-0.066,0.082,0.995,0.0,0.0,-0.183,-30.147,-50.804,-59.072,4.697,3.777,68.963,
803436583322,803434583322,803.436583322,803.434583322,1768551563.2852824,-0.066,0.082,0.995,0.0,0.0,-0.183,-30.134,-50.804,-59.072,4.697,3.777,68.961,
803446800058,803444800058,803.446800058,803.444800058,1768551563.2955132,-0.066,0.082,0.995,0.0,0.0,-0.183,-30.147,-50.817,-59.072,4.697,3.777,68.959,
803457042754,803455042754,803.457042754,803.455042754,1768551563.3057353,-0.066,0.082,0.995,0.0,0.0,0.0,-30.134,-50.817,-59.072,4.697,3.777,68.957,
803467421665,803465421665,803.467421665,803.465421665,1768551563.3161347,-0.066,0.082,0.995,0.0,0.0,-0.183,-30.134,-50.804,-59.072,4.697,3.777,68.955,
803477634901,803475634901,803.477634901,803.475634901,1768551563.3263428,-0.066,0.082,0.995,0.0,0.0,-0.122,-30.134,-50.804,-59.072,4.697,3.777,68.953,
803487833844,803485833844,803.487833844,803.485833844,1768551563.3365526,-0.066,0.082,0.995,0.0,0.0,-0.122,-30.147,-50.804,-59.085,4.697,3.777,68.951,
803498073331,803496073331,803.498073331,803.496073331,1768551563.3467677,-0.066,0.082,0.995,0.0,0.0,0.0,-30.16,-50.804,-59.059,4.697,3.777,68.95,
803508284817,803506284817,803.508284817,803.506284817,1768551563.3570004,-0.066,0.082,0.995,0.0,0.0,-0.122,-30.134,-50.817,-59.046,4.697,3.777,68.948,
803518316335,803516316335,803.518316335,803.516316335,1768551563.3670282,-0.066,0.082,0.995,0.0,0.0,-0.183,-30.147,-50.804,-59.059,4.697,3.777,68.946,
803528536279,803526536279,803.528536279,803.526536279,1768551563.377253,-0.066,0.082,0.995,0.0,0.0,-0.183,-30.134,-50.804,-59.072,4.697,3.777,68.944,
803538918690,803536918690,803.53891869,803.53691869,1768551563.3876367,-0.066,0.082,0.995,0.0,0.0,-0.183,-30.134,-50.791,-59.072,4.697,3.777,68.942,
803549164886,803547164886,803.549164886,803.547164886,1768551563.3978658,-0.066,0.082,0.995,0.0,0.0,-0.183,-30.147,-50.817,-59.085,4.697,3.777,68.94,
803559408165,803557408165,803.559408165,803.557408165,1768551563.4081254,-0.066,0.082,0.995,0.0,0.0,-0.183,-30.147,-50.817,-59.072,4.697,3.777,68.938,
803569601567,803567601567,803.569601567,803.567601567,1768551563.418302,-0.066,0.082,0.995,0.0,0.0,-0.183,-30.121,-50.83,-59.059,4.697,3.777,68.936,
803579801093,803577801093,803.579801093,803.577801093,1768551563.428517,-0.066,0.082,0.995,0.0,0.0,-0.183,-30.121,-50.83,-59.059,4.697,3.777,68.934,
803590032997,803588032997,803.590032997,803.588032997,1768551563.438742,-0.066,0.082,0.995,0.0,0.0,-0.183,-30.134,-50.83,-59.046,4.697,3.777,68.932,
803600433201,803598433201,803.600433201,803.598433201,1768551563.4491303,-0.066,0.082,0.995,0.0,0.0,-0.183,-30.147,-50.804,-59.02,4.697,3.777,68.93,
803610628644,803608628644,803.610628644,803.608628644,1768551563.4593318,-0.066,0.082,0.995,0.0,0.0,-0.183,-30.134,-50.817,-59.046,4.697,3.777,68.929,
803620835754,803618835754,803.620835754,803.618835754,1768551563.4695556,-0.066,0.082,0.995,0.0,0.0,-0.183,-30.134,-50.791,-59.059,4.697,3.777,68.927,
803631069699,803629069699,803.631069699,803.629069699,1768551563.4797769,-0.066,0.082,0.995,0.0,0.0,-0.122,-30.134,-50.791,-59.072,4.697,3.777,68.925,
803641282352,803639282352,803.641282352,803.639282352,1768551563.4900055,-0.066,0.082,0.995,0.0,0.0,-0.183,-30.134,-50.804,-59.072,4.697,3.777,68.923,
803651666513,803649666513,803.651666513,803.649666513,1768551563.500385,-0.066,0.082,0.995,0.0,0.0,-0.183,-30.16,-50.804,-59.072,4.697,3.777,68.921,
803661703573,803659703573,803.661703573,803.659703573,1768551563.510427,-0.066,0.082,0.995,0.0,0.0,-0.183,-30.16,-50.804,-59.072,4.697,3.777,68.919,
803672098818,803670098818,803.672098818,803.670098818,1768551563.5208194,-0.066,0.082,0.995,0.0,0.0,0.0,-30.121,-50.817,-59.059,4.697,3.777,68.917,
803682317596,803680317596,803.682317596,803.680317596,1768551563.5310342,-0.066,0.082,0.995,0.0,0.0,-0.183,-30.108,-50.817,-59.072,4.697,3.777,68.915,
803692724508,803690724508,803.692724508,803.690724508,1768551563.5414386,-0.066,0.082,0.995,0.0,0.0,-0.122,-30.108,-50.83,-59.059,4.697,3.777,68.913,
803702921702,803700921702,803.702921702,803.700921702,1768551563.5516446,-0.066,0.082,0.995,0.0,0.0,-0.183,-30.121,-50.817,-59.059,4.697,3.777,68.911,
803713179856,803711179856,803.713179856,803.711179856,1768551563.5618846,-0.066,0.082,0.995,0.0,0.0,-0.183,-30.147,-50.843,-59.059,4.697,3.777,68.909,
803723437428,803721437428,803.723437428,803.721437428,1768551563.5721328,-0.066,0.082,0.995,0.0,0.0,-0.183,-30.121,-50.817,-59.059,4.697,3.777,68.907,
803733589119,803731589119,803.733589119,803.731589119,1768551563.5823054,-0.066,0.082,0.995,0.0,0.0,-0.183,-30.095,-50.817,-59.059,4.697,3.777,68.906,
803743977072,803741977072,803.743977072,803.741977072,1768551563.5926974,-0.066,0.082,0.995,0.0,0.0,-0.183,-30.095,-50.804,-59.059,4.697,3.777,68.904,
803754558410,803752558410,803.75455841,803.75255841,1768551563.6031625,-0.066,0.082,0.995,0.0,0.0,-0.183,-30.095,-50.804,-59.059,4.697,3.777,68.902,
803764946655,803762946655,803.764946655,803.762946655,1768551563.6135502,-0.066,0.082,0.995,0.0,0.0,-0.183,-30.095,-50.804,-59.137,4.697,3.777,68.9,
803774771662,803772771662,803.774771662,803.772771662,1768551563.6234815,-0.066,0.082,0.995,0.0,0.0,-0.183,-30.056,-50.804,-59.202,4.697,3.777,68.898,
803785069777,803783069777,803.785069777,803.783069777,1768551563.6337657,-0.066,0.082,0.995,0.0,0.0,0.0,-30.082,-50.804,-59.111,4.697,3.777,68.896,
803795249761,803793249761,803.795249761,803.793249761,1768551563.6439445,-0.066,0.082,0.995,0.0,0.0,-0.183,-30.082,-50.843,-59.085,4.697,3.777,68.894,
803805441413,803803441413,803.805441413,803.803441413,1768551563.6541383,-0.066,0.082,0.995,0.0,0.0,-0.183,-30.095,-50.843,-59.033,4.697,3.777,68.892,
803821322025,803819322025,803.821322025,803.819322025,1768551563.6698768,-0.066,0.082,0.995,0.0,0.0,0.0,-30.134,-50.843,-59.072,4.697,3.777,68.889,
803831170950,803829170950,803.83117095,803.82917095,1768551563.679867,-0.066,0.082,0.995,0.0,0.0,-0.183,-30.108,-50.843,-59.176,4.697,3.777,68.887,
803841507275,803839507275,803.841507275,803.839507275,1768551563.6901968,-0.066,0.082,0.995,0.0,0.0,-0.183,-30.095,-50.83,-59.15,4.697,3.777,68.885,
803851825808,803849825808,803.851825808,803.849825808,1768551563.700521,-0.066,0.082,0.995,0.0,0.0,-0.183,-30.108,-50.83,-59.072,4.697,3.777,68.883,
803862189843,803860189843,803.862189843,803.860189843,1768551563.710905,-0.066,0.082,0.995,0.0,0.0,-0.183,-30.147,-50.817,-59.033,4.697,3.777,68.881,
803872390245,803870390245,803.872390245,803.870390245,1768551563.7211082,-0.066,0.082,0.995,0.0,0.0,-0.183,-30.134,-50.83,-59.02,4.697,3.777,68.879,
803882588314,803880588314,803.882588314,803.880588314,1768551563.7312999,-0.066,0.082,0.995,0.0,0.0,-0.122,-30.147,-50.817,-59.02,4.697,3.777,68.877,
803892805341,803890805341,803.892805341,803.890805341,1768551563.7415218,-0.066,0.082,0.995,0.0,0.0,-0.122,-30.134,-50.817,-59.033,4.697,3.777,68.875,
803903020910,803901020910,803.90302091,803.90102091,1768551563.7517369,-0.066,0.082,0.995,0.0,0.0,-0.183,-30.134,-50.804,-59.007,4.697,3.777,68.873,
803918074021,803916074021,803.918074021,803.916074021,1768551563.7665045,-0.066,0.082,0.995,0.0,0.0,-0.183,-30.134,-50.817,-59.072,4.697,3.777,68.871,
803927972532,803925972532,803.927972532,803.925972532,1768551563.7766607,-0.066,0.082,0.995,0.0,0.0,-0.122,-30.121,-50.83,-59.163,4.697,3.777,68.869,
803938288357,803936288357,803.938288357,803.936288357,1768551563.786866,-0.066,0.082,0.995,0.0,0.0,-0.122,-30.069,-50.817,-59.176,4.697,3.777,68.867,
803948391212,803946391212,803.948391212,803.946391212,1768551563.7970555,-0.066,0.082,0.995,0.0,0.0,-0.122,-30.108,-50.817,-59.15,4.697,3.777,68.865,
803958489817,803956489817,803.958489817,803.956489817,1768551563.8072057,-0.066,0.082,0.995,0.0,0.0,-0.122,-30.134,-50.817,-59.085,4.697,3.777,68.863,
803968776265,803966776265,803.968776265,803.966776265,1768551563.8174748,-0.066,0.082,0.995,0.0,0.0,-0.122,-30.134,-50.83,-59.085,4.697,3.777,68.862,
803978973166,803976973166,803.978973166,803.976973166,1768551563.8276916,-0.066,0.082,0.995,0.0,0.0,0.0,-30.16,-50.817,-59.072,4.697,3.777,68.86,
803989192527,803987192527,803.989192527,803.987192527,1768551563.8379111,-0.066,0.082,0.995,0.0,0.0,-0.183,-30.147,-50.83,-59.046,4.697,3.777,68.858,
803999730696,803997730696,803.999730696,803.997730696,1768551563.8483024,-0.066,0.082,0.995,0.0,0.0,-0.183,-30.121,-50.83,-59.046,4.697,3.777,68.856,
804009796050,804007796050,804.00979605,804.00779605,1768551563.8585188,-0.066,0.082,0.995,0.0,0.0,-0.183,-30.108,-50.83,-59.033,4.697,3.777,68.854,
804020074914,804018074914,804.020074914,804.018074914,1768551563.8687353,-0.066,0.082,0.995,0.0,0.0,-0.183,-30.108,-50.817,-59.059,4.697,3.777,68.852,
804030275024,804028275024,804.030275024,804.028275024,1768551563.8789647,-0.066,0.082,0.995,0.0,0.0,-0.183,-30.095,-50.83,-59.072,4.697,3.777,68.85,
804040532595,804038532595,804.040532595,804.038532595,1768551563.8891695,-0.066,0.082,0.995,0.0,0.0,-0.183,-30.095,-50.817,-59.072,4.697,3.777,68.848,
804050926965,804048926965,804.050926965,804.048926965,1768551563.8994007,-0.066,0.082,0.995,0.0,0.0,-0.122,-30.108,-50.817,-59.059,4.697,3.777,68.846,
804061171994,804059171994,804.061171994,804.059171994,1768551563.9096148,-0.066,0.082,0.995,0.0,0.0,-0.122,-30.134,-50.83,-59.046,4.697,3.777,68.845,
804071211971,804069211971,804.071211971,804.069211971,1768551563.9198332,-0.066,0.082,0.995,0.0,0.0,-0.122,-30.108,-50.83,-59.046,4.697,3.777,68.843,
804081589424,804079589424,804.081589424,804.079589424,1768551563.9300706,-0.066,0.082,0.995,0.0,0.0,-0.122,-30.108,-50.817,-59.072,4.697,3.777,68.841,
804091675486,804089675486,804.091675486,804.089675486,1768551563.940217,-0.066,0.082,0.995,0.0,0.0,-0.122,-30.095,-50.843,-59.085,4.697,3.777,68.839,
804101952017,804099952017,804.101952017,804.099952017,1768551563.950442,-0.066,0.082,0.995,0.0,0.0,-0.183,-30.108,-50.83,-59.046,4.697,3.777,68.837,
804112259174,804110259174,804.112259174,804.110259174,1768551563.9607582,-0.066,0.082,0.995,0.0,0.0,0.0,-30.134,-50.843,-59.046,4.697,3.777,68.835,
804122373238,804120373238,804.122373238,804.120373238,1768551563.970923,-0.066,0.082,0.995,0.0,0.0,-0.183,-30.147,-50.83,-59.02,4.697,3.777,68.833,
804132703147,804130703147,804.132703147,804.130703147,1768551563.9811785,-0.066,0.082,0.995,0.0,0.0,-0.183,-30.134,-50.843,-59.059,4.697,3.777,68.831,
804143323570,804141323570,804.14332357,804.14132357,1768551563.9916017,-0.066,0.082,0.995,0.0,0.0,-0.183,-30.121,-50.83,-59.098,4.697,3.777,68.83,
804154266594,804152266594,804.154266594,804.152266594,1768551564.0031147,-0.066,0.082,0.995,0.0,0.0,-0.183,-30.082,-50.804,-59.215,4.697,3.777,68.827,
804164480121,804162480121,804.164480121,804.162480121,1768551564.013334,-0.066,0.082,0.995,0.0,0.0,-0.183,-30.095,-50.791,-59.176,4.697,3.777,68.825,
804174684898,804172684898,804.174684898,804.172684898,1768551564.0235438,-0.066,0.082,0.995,0.0,0.0,-0.183,-30.121,-50.804,-59.098,4.697,3.777,68.824,
804184892884,804182892884,804.184892884,804.182892884,1768551564.033757,-0.066,0.082,0.995,0.0,0.0,-0.183,-30.121,-50.791,-59.046,4.697,3.777,68.821,
804195119245,804193119245,804.195119245,804.193119245,1768551564.0439837,-0.066,0.082,0.995,0.0,0.0,-0.183,-30.134,-50.791,-59.059,4.697,3.777,68.82,
804205509824,804203509824,804.205509824,804.203509824,1768551564.054375,-0.066,0.082,0.995,0.0,0.0,-0.183,-30.134,-50.791,-59.046,4.697,3.777,68.818,
804215808230,804213808230,804.21580823,804.21380823,1768551564.0645769,-0.066,0.082,0.995,0.0,0.0,-0.183,-30.134,-50.791,-59.033,4.697,3.777,68.816,
804225993756,804223993756,804.225993756,804.223993756,1768551564.0748532,-0.066,0.082,0.995,0.0,0.0,-0.183,-30.147,-50.804,-59.059,4.697,3.777,68.814,
804236200575,804234200575,804.236200575,804.234200575,1768551564.0850668,-0.066,0.082,0.995,0.0,0.0,-0.183,-30.121,-50.83,-59.072,4.697,3.777,68.812,
804246421978,804244421978,804.246421978,804.244421978,1768551564.095287,-0.066,0.082,0.995,0.0,0.0,-0.183,-30.108,-50.817,-59.072,4.697,3.777,68.81,
804256660007,804254660007,804.256660007,804.254660007,1768551564.1054997,-0.066,0.082,0.995,0.0,0.0,-0.183,-30.121,-50.83,-59.059,4.697,3.777,68.808,
804266917286,804264917286,804.266917286,804.264917286,1768551564.1157238,-0.066,0.082,0.995,0.0,0.0,-0.183,-30.121,-50.83,-59.059,4.697,3.777,68.806,
804277075103,804275075103,804.277075103,804.275075103,1768551564.1259413,-0.066,0.082,0.995,0.0,0.0,-0.183,-30.147,-50.83,-59.072,4.697,3.777,68.804,
804287356592,804285356592,804.287356592,804.285356592,1768551564.1361642,-0.066,0.082,0.995,0.0,0.0,-0.183,-30.147,-50.843,-59.059,4.697,3.777,68.802,
804297511200,804295511200,804.2975112,804.2955112,1768551564.1463764,-0.066,0.082,0.995,0.0,0.0,-0.183,-30.121,-50.83,-59.059,4.697,3.777,68.8,
804307923071,804305923071,804.307923071,804.305923071,1768551564.1567755,-0.066,0.082,0.995,0.0,0.0,-0.183,-30.108,-50.817,-59.046,4.697,3.777,68.799,
804318007675,804316007675,804.318007675,804.316007675,1768551564.166818,-0.066,0.082,0.995,0.0,0.0,-0.183,-30.121,-50.791,-59.033,4.697,3.776,68.797,
804328370835,804326370835,804.328370835,804.326370835,1768551564.1772087,-0.066,0.082,0.995,0.0,0.0,-0.183,-30.134,-50.804,-59.059,4.697,3.776,68.795,
804338402937,804336402937,804.338402937,804.336402937,1768551564.187258,-0.066,0.082,0.995,0.0,0.0,-0.183,-30.147,-50.791,-59.072,4.696,3.776,68.793,
804348622298,804346622298,804.348622298,804.346622298,1768551564.1974802,-0.066,0.082,0.995,0.0,0.0,-0.183,-30.147,-50.804,-59.072,4.696,3.776,68.791,
804358833200,804356833200,804.3588332,804.3568332,1768551564.2076945,-0.066,0.082,0.995,0.0,0.0,-0.183,-30.147,-50.804,-59.085,4.696,3.776,68.789,
804369120815,804367120815,804.369120815,804.367120815,1768551564.2179196,-0.066,0.082,0.995,0.0,0.0,-0.183,-30.134,-50.83,-59.072,4.696,3.776,68.787,
804379433805,804377433805,804.379433805,804.377433805,1768551564.2283044,-0.066,0.082,0.995,0.0,0.0,-0.183,-30.134,-50.83,-59.072,4.696,3.776,68.785,
804389663084,804387663084,804.389663084,804.387663084,1768551564.2385278,-0.066,0.082,0.995,0.0,0.0,-0.183,-30.147,-50.843,-59.085,4.696,3.776,68.783,
804399882445,804397882445,804.399882445,804.397882445,1768551564.2487473,-0.066,0.082,0.995,0.0,0.0,0.0,-30.147,-50.817,-59.072,4.696,3.776,68.782,
804410312984,804408312984,804.410312984,804.408312984,1768551564.2591696,-0.066,0.082,0.995,0.0,0.0,-0.122,-30.121,-50.843,-59.059,4.696,3.776,68.78,
804420350627,804418350627,804.420350627,804.418350627,1768551564.2691913,-0.066,0.082,0.995,0.0,0.0,-0.122,-30.121,-50.856,-59.02,4.697,3.776,68.778,
804430563571,804428563571,804.430563571,804.428563571,1768551564.2794244,-0.066,0.082,0.995,0.0,0.0,-0.122,-30.121,-50.843,-59.02,4.697,3.776,68.776,
804440931106,804438931106,804.440931106,804.438931106,1768551564.2897968,-0.066,0.082,0.995,0.0,0.0,-0.122,-30.147,-50.83,-59.02,4.697,3.776,68.774,
804450978084,804448978084,804.450978084,804.448978084,1768551564.299842,-0.066,0.082,0.995,0.0,0.0,-0.122,-30.147,-50.83,-59.007,4.697,3.776,68.772,
804461222238,804459222238,804.461222238,804.459222238,1768551564.3100688,-0.066,0.082,0.995,0.0,0.0,-0.183,-30.134,-50.804,-59.02,4.697,3.776,68.771,
804471449474,804469449474,804.471449474,804.469449474,1768551564.320305,-0.066,0.082,0.995,0.0,0.0,-0.183,-30.147,-50.817,-59.02,4.697,3.776,68.769,
804481637917,804479637917,804.481637917,804.479637917,1768551564.3305037,-0.066,0.082,0.995,0.0,0.0,-0.183,-30.147,-50.791,-59.02,4.697,3.777,68.767,
804491865153,804489865153,804.491865153,804.489865153,1768551564.340727,-0.066,0.082,0.995,0.0,0.0,-0.183,-30.147,-50.804,-59.033,4.697,3.777,68.765,
804502070806,804500070806,804.502070806,804.500070806,1768551564.3509362,-0.066,0.082,0.995,0.0,0.0,-0.183,-30.173,-50.83,-59.02,4.697,3.777,68.763,
804512322835,804510322835,804.512322835,804.510322835,1768551564.361175,-0.066,0.082,0.995,0.0,0.0,-0.183,-30.147,-50.843,-59.007,4.697,3.777,68.761,
804522518278,804520518278,804.522518278,804.520518278,1768551564.3713813,-0.066,0.082,0.995,0.0,0.0,-0.183,-30.16,-50.83,-59.033,4.697,3.777,68.759,
804532699429,804530699429,804.532699429,804.530699429,1768551564.381562,-0.066,0.082,0.995,0.0,0.0,-0.183,-30.147,-50.856,-59.046,4.697,3.777,68.757,
804542901872,804540901872,804.542901872,804.540901872,1768551564.3917665,-0.066,0.082,0.995,0.0,0.0,0.0,-30.147,-50.83,-59.033,4.697,3.777,68.755,
804553209905,804551209905,804.553209905,804.551209905,1768551564.4020414,-0.066,0.082,0.995,0.0,0.0,-0.122,-30.16,-50.83,-59.007,4.696,3.777,68.753,
804563409723,804561409723,804.563409723,804.561409723,1768551564.412253,-0.066,0.082,0.995,0.0,0.0,-0.183,-30.16,-50.83,-59.02,4.696,3.777,68.751,
804573775217,804571775217,804.573775217,804.571775217,1768551564.4226372,-0.066,0.082,0.995,0.0,0.0,-0.183,-30.147,-50.843,-59.02,4.696,3.777,68.749,
804583993995,804581993995,804.583993995,804.581993995,1768551564.4328582,-0.066,0.082,0.995,0.0,0.0,0.0,-30.134,-50.83,-59.007,4.696,3.777,68.747,
804594263525,804592263525,804.594263525,804.592263525,1768551564.4430747,-0.066,0.082,0.995,0.0,0.0,-0.122,-30.108,-50.817,-59.02,4.696,3.777,68.745,
804604461010,804602461010,804.60446101,804.60246101,1768551564.4533079,-0.066,0.082,0.995,0.0,0.0,-0.122,-30.147,-50.817,-59.033,4.696,3.777,68.744,
804614640411,804612640411,804.614640411,804.612640411,1768551564.4634855,-0.066,0.082,0.995,0.0,0.0,-0.122,-30.134,-50.817,-59.02,4.696,3.777,68.742,
804624878148,804622878148,804.624878148,804.622878148,1768551564.473735,-0.066,0.082,0.995,0.0,0.0,-0.122,-30.147,-50.791,-59.033,4.696,3.777,68.74,
804634933000,804632933000,804.634933,804.632933,1768551564.4837954,-0.066,0.082,0.995,0.0,0.0,0.0,-30.134,-50.83,-59.059,4.696,3.777,68.738,
804645319495,804643319495,804.645319495,804.643319495,1768551564.4941838,-0.066,0.082,0.995,0.0,0.0,-0.183,-30.134,-50.817,-59.059,4.696,3.777,68.736,
804655350430,804653350430,804.65535043,804.65335043,1768551564.5042157,-0.066,0.082,0.995,0.0,0.0,-0.183,-30.147,-50.817,-59.072,4.697,3.777,68.734,
804665746842,804663746842,804.665746842,804.663746842,1768551564.5146127,-0.066,0.082,0.995,0.0,0.0,-0.183,-30.147,-50.817,-59.072,4.697,3.777,68.732,
804675966786,804673966786,804.675966786,804.673966786,1768551564.5248287,-0.066,0.082,0.995,0.0,0.0,-0.183,-30.134,-50.83,-59.085,4.697,3.777,68.73,
804686198981,804684198981,804.686198981,804.684198981,1768551564.535065,-0.066,0.082,0.995,0.0,0.0,-0.183,-30.173,-50.83,-59.072,4.697,3.777,68.728,
804696400258,804694400258,804.696400258,804.694400258,1768551564.5452604,-0.066,0.082,0.995,0.0,0.0,-0.183,-30.147,-50.83,-59.085,4.697,3.777,68.726,
804706623119,804704623119,804.706623119,804.704623119,1768551564.5554817,-0.066,0.082,0.995,0.0,0.0,-0.183,-30.147,-50.83,-59.072,4.697,3.777,68.724,
804716899358,804714899358,804.716899358,804.714899358,1768551564.5657496,-0.066,0.082,0.995,0.0,0.0,-0.183,-30.134,-50.83,-59.072,4.697,3.777,68.722,
804727076425,804725076425,804.727076425,804.725076425,1768551564.5759263,-0.066,0.082,0.995,0.0,0.0,-0.183,-30.121,-50.817,-59.033,4.697,3.777,68.72,
804737326413,804735326413,804.737326413,804.735326413,1768551564.5861886,-0.066,0.082,0.995,0.0,0.0,-0.183,-30.121,-50.817,-59.072,4.697,3.777,68.718,
804747576693,804745576693,804.747576693,804.745576693,1768551564.5963497,-0.066,0.082,0.995,0.0,0.0,-0.183,-30.121,-50.804,-59.059,4.697,3.777,68.716,
804757708549,804755708549,804.757708549,804.755708549,1768551564.6065733,-0.066,0.082,0.995,0.0,0.0,-0.183,-30.134,-50.817,-59.072,4.697,3.777,68.714,
804767763985,804765763985,804.767763985,804.765763985,1768551564.6166162,-0.066,0.082,0.995,0.0,0.0,-0.122,-30.147,-50.817,-59.059,4.697,3.777,68.713,
804778146396,804776146396,804.778146396,804.776146396,1768551564.6270103,-0.066,0.082,0.995,0.0,0.0,-0.122,-30.121,-50.804,-59.033,4.697,3.777,68.711,
804788395509,804786395509,804.788395509,804.786395509,1768551564.637223,-0.066,0.082,0.995,0.0,0.0,-0.122,-30.134,-50.804,-59.046,4.697,3.777,68.709,
804798596202,804796596202,804.798596202,804.796596202,1768551564.6474457,-0.066,0.082,0.995,0.0,0.0,-0.122,-30.134,-50.804,-59.046,4.697,3.777,68.707,
804808614595,804806614595,804.808614595,804.806614595,1768551564.6574566,-0.066,0.082,0.995,0.0,0.0,-0.183,-30.121,-50.804,-59.059,4.697,3.777,68.705,
804819132055,804817132055,804.819132055,804.817132055,1768551564.667885,-0.066,0.082,0.995,0.0,0.0,0.0,-30.147,-50.804,-58.981,4.697,3.777,68.703,
804829175240,804827175240,804.82917524,804.82717524,1768551564.678008,-0.066,0.082,0.995,0.0,0.0,-0.183,-30.16,-50.83,-58.968,4.697,3.777,68.701,
804839448562,804837448562,804.839448562,804.837448562,1768551564.68828,-0.066,0.082,0.995,0.0,0.0,-0.183,-30.134,-50.83,-59.007,4.697,3.777,68.699,
804849633213,804847633213,804.849633213,804.847633213,1768551564.698495,-0.066,0.082,0.995,0.0,0.0,-0.183,-30.121,-50.83,-59.046,4.697,3.777,68.698,
804860042167,804858042167,804.860042167,804.858042167,1768551564.7088947,-0.066,0.082,0.995,0.0,0.0,0.0,-30.108,-50.817,-59.059,4.697,3.777,68.696,
804870344949,804868344949,804.870344949,804.868344949,1768551564.7191844,-0.066,0.082,0.995,0.0,0.0,-0.183,-30.108,-50.83,-59.072,4.697,3.777,68.694,
804880495182,804878495182,804.880495182,804.878495182,1768551564.7293015,-0.066,0.082,0.995,0.0,0.0,-0.183,-30.121,-50.804,-59.046,4.697,3.777,68.692,
804890717460,804888717460,804.89071746,804.88871746,1768551564.7395258,-0.066,0.082,0.995,0.0,0.0,-0.183,-30.121,-50.817,-59.046,4.697,3.777,68.69,
804900882568,804898882568,804.900882568,804.898882568,1768551564.7497363,-0.066,0.082,0.995,0.0,0.0,-0.183,-30.134,-50.817,-59.046,4.697,3.777,68.688,
804911174850,804909174850,804.91117485,804.90917485,1768551564.7599542,-0.066,0.082,0.995,0.0,0.0,-0.183,-30.121,-50.83,-59.046,4.697,3.777,68.686,
804921308456,804919308456,804.921308456,804.919308456,1768551564.7701561,-0.066,0.082,0.995,0.0,0.0,-0.183,-30.134,-50.817,-59.059,4.697,3.777,68.684,
804931622030,804929622030,804.93162203,804.92962203,1768551564.7804117,-0.066,0.082,0.995,0.0,0.0,-0.183,-30.134,-50.817,-59.033,4.697,3.777,68.682,
804941759137,804939759137,804.941759137,804.939759137,1768551564.7906113,-0.066,0.082,0.995,0.0,0.0,-0.183,-30.134,-50.817,-59.059,4.697,3.777,68.68,
804951984624,804949984624,804.951984624,804.949984624,1768551564.8008292,-0.066,0.082,0.995,0.0,0.0,-0.183,-30.173,-50.843,-59.072,4.697,3.777,68.678,
804962360618,804960360618,804.962360618,804.960360618,1768551564.8112218,-0.066,0.082,0.995,0.0,0.0,-0.183,-30.147,-50.817,-59.046,4.697,3.777,68.676,
804972565978,804970565978,804.972565978,804.970565978,1768551564.82143,-0.066,0.082,0.995,0.0,0.0,-0.183,-30.134,-50.843,-59.059,4.697,3.777,68.674,
804982801674,804980801674,804.982801674,804.980801674,1768551564.831662,-0.066,0.082,0.995,0.0,0.0,-0.183,-30.134,-50.83,-59.059,4.697,3.777,68.672,
804993006159,804991006159,804.993006159,804.991006159,1768551564.8418705,-0.066,0.082,0.995,0.0,0.0,-0.183,-30.134,-50.817,-59.059,4.697,3.777,68.67,
805003291732,805001291732,805.003291732,805.001291732,1768551564.85208,-0.066,0.082,0.995,0.0,0.0,-0.183,-30.108,-50.804,-59.072,4.697,3.777,68.668,
805013450423,805011450423,805.013450423,805.011450423,1768551564.8622994,-0.066,0.082,0.995,0.0,0.0,-0.183,-30.108,-50.804,-59.059,4.697,3.777,68.666,
805023866669,805021866669,805.023866669,805.021866669,1768551564.8726895,-0.066,0.082,0.995,0.0,0.0,-0.183,-30.121,-50.804,-59.046,4.697,3.777,68.664,
805034133283,805032133283,805.034133283,805.032133283,1768551564.8829145,-0.066,0.082,0.995,0.0,0.0,-0.183,-30.108,-50.83,-59.02,4.697,3.777,68.662,
805044371895,805042371895,805.044371895,805.042371895,1768551564.8931637,-0.066,0.082,0.995,0.0,0.0,-0.183,-30.108,-50.817,-59.033,4.697,3.777,68.66,
805054659218,805052659218,805.054659218,805.052659218,1768551564.9035265,-0.066,0.082,0.995,0.0,0.0,-0.122,-30.108,-50.817,-59.059,4.697,3.777,68.659,
805064868078,805062868078,805.064868078,805.062868078,1768551564.9137337,-0.066,0.082,0.995,0.0,0.0,-0.122,-30.121,-50.791,-59.046,4.697,3.777,68.657,
805075153360,805073153360,805.07515336,805.07315336,1768551564.9239497,-0.066,0.082,0.995,0.0,0.0,-0.183,-30.134,-50.817,-59.059,4.697,3.777,68.655,
805085309717,805083309717,805.085309717,805.083309717,1768551564.934166,-0.066,0.082,0.995,0.0,0.0,-0.183,-30.147,-50.83,-59.059,4.697,3.777,68.653,
805095344444,805093344444,805.095344444,805.093344444,1768551564.9442084,-0.066,0.082,0.995,0.0,0.0,-0.183,-30.16,-50.843,-59.02,4.697,3.777,68.651,
805105728022,805103728022,805.105728022,805.103728022,1768551564.9545944,-0.066,0.082,0.995,0.0,0.0,-0.183,-30.173,-50.843,-59.007,4.697,3.777,68.649,
805115961675,805113961675,805.115961675,805.113961675,1768551564.9648116,-0.066,0.082,0.995,0.0,0.0,-0.183,-30.147,-50.843,-59.033,4.697,3.777,68.647,
805126269416,805124269416,805.126269416,805.124269416,1768551564.9750443,-0.066,0.082,0.995,0.0,0.0,-0.183,-30.121,-50.83,-59.059,4.697,3.777,68.645,
805136389022,805134389022,805.136389022,805.134389022,1768551564.985246,-0.066,0.082,0.995,0.0,0.0,-0.183,-30.121,-50.83,-59.046,4.697,3.777,68.643,
805146600216,805144600216,805.146600216,805.144600216,1768551564.9954586,-0.066,0.082,0.995,0.0,0.0,-0.183,-30.121,-50.83,-59.033,4.697,3.777,68.641,
805156981169,805154981169,805.156981169,805.154981169,1768551565.0058424,-0.066,0.082,0.995,0.0,0.0,-0.183,-30.134,-50.817,-59.046,4.697,3.777,68.639,
805167200238,805165200238,805.167200238,805.165200238,1768551565.0160642,-0.066,0.082,0.995,0.0,0.0,-0.183,-30.121,-50.843,-59.059,4.697,3.777,68.637,
805177510021,805175510021,805.177510021,805.175510021,1768551565.0262828,-0.066,0.082,0.995,0.0,0.0,-0.183,-30.121,-50.83,-59.059,4.697,3.777,68.635,
805188210073,805186210073,805.188210073,805.186210073,1768551565.0369234,-0.066,0.082,0.995,0.0,0.0,-0.183,-30.134,-50.83,-59.059,4.697,3.777,68.633,
805199044716,805197044716,805.199044716,805.197044716,1768551565.0476556,-0.066,0.082,0.995,0.0,0.0,-0.183,-30.121,-50.817,-59.163,4.697,3.777,68.631,
805209220325,805207220325,805.209220325,805.207220325,1768551565.0576446,-0.066,0.082,0.995,0.0,0.0,-0.183,-30.082,-50.817,-59.215,4.697,3.777,68.629,
805219228008,805217228008,805.219228008,805.217228008,1768551565.0678387,-0.066,0.082,0.995,0.0,0.0,0.0,-30.082,-50.817,-59.176,4.697,3.777,68.628,
805229451745,805227451745,805.229451745,805.227451745,1768551565.078058,-0.066,0.082,0.995,0.0,0.0,-0.183,-30.108,-50.843,-59.124,4.697,3.777,68.626,
805239886659,805237886659,805.239886659,805.237886659,1768551565.0883808,-0.066,0.082,0.995,0.0,0.0,-0.183,-30.121,-50.843,-59.059,4.697,3.777,68.624,
805250052642,805248052642,805.250052642,805.248052642,1768551565.0985842,-0.066,0.082,0.995,0.0,0.0,-0.183,-30.134,-50.856,-59.059,4.697,3.777,68.622,
805260450512,805258450512,805.260450512,805.258450512,1768551565.1088958,-0.066,0.082,0.995,0.0,0.0,0.0,-30.16,-50.856,-59.072,4.697,3.777,68.62,
805270649164,805268649164,805.270649164,805.268649164,1768551565.1191118,-0.066,0.082,0.995,0.0,0.0,-0.183,-30.134,-50.843,-59.072,4.697,3.777,68.618,
805281273963,805279273963,805.281273963,805.279273963,1768551565.1294956,-0.066,0.082,0.995,0.0,0.0,-0.183,-30.121,-50.83,-59.085,4.697,3.777,68.616,
805291603579,805289603579,805.291603579,805.289603579,1768551565.139967,-0.066,0.082,0.995,0.0,0.0,-0.183,-30.108,-50.83,-59.111,4.697,3.777,68.614,
805301042108,805299042108,805.301042108,805.299042108,1768551565.1498916,-0.066,0.082,0.995,0.0,0.0,0.0,-30.108,-50.791,-59.202,4.697,3.777,68.612,
805313130274,805311130274,805.313130274,805.311130274,1768551565.161983,-0.066,0.082,0.995,0.0,0.0,-0.183,-30.121,-50.804,-59.163,4.697,3.777,68.609,
805323346427,805321346427,805.323346427,805.321346427,1768551565.1722014,-0.066,0.082,0.995,0.0,0.0,-0.183,-30.147,-50.804,-59.098,4.697,3.777,68.607,
805333587664,805331587664,805.333587664,805.331587664,1768551565.1824386,-0.066,0.082,0.995,0.0,0.0,-0.183,-30.134,-50.804,-59.059,4.697,3.777,68.606,
805343771440,805341771440,805.34377144,805.34177144,1768551565.1926346,-0.066,0.082,0.995,0.0,0.0,-0.183,-30.16,-50.804,-59.02,4.697,3.777,68.604,
805353989051,805351989051,805.353989051,805.351989051,1768551565.2028487,-0.066,0.082,0.995,0.0,0.0,-0.183,-30.147,-50.804,-59.02,4.697,3.777,68.602,
805364378754,805362378754,805.364378754,805.362378754,1768551565.2132404,-0.066,0.082,0.995,0.0,0.0,-0.183,-30.147,-50.804,-59.033,4.697,3.777,68.6,
805374604532,805372604532,805.374604532,805.372604532,1768551565.223451,-0.066,0.082,0.995,0.0,0.0,-0.183,-30.134,-50.83,-59.033,4.697,3.777,68.598,
805384816018,805382816018,805.384816018,805.382816018,1768551565.2336848,-0.066,0.082,0.995,0.0,0.0,-0.183,-30.134,-50.817,-59.059,4.697,3.777,68.596,
805395036838,805393036838,805.395036838,805.393036838,1768551565.243891,-0.066,0.082,0.995,0.0,0.0,0.0,-30.134,-50.83,-59.072,4.697,3.777,68.594,
805405276325,805403276325,805.405276325,805.403276325,1768551565.2541094,-0.066,0.082,0.995,0.0,0.0,-0.183,-30.134,-50.843,-59.085,4.697,3.777,68.592,
805415476435,805413476435,805.415476435,805.413476435,1768551565.264326,-0.066,0.082,0.995,0.0,0.0,-0.183,-30.121,-50.843,-59.072,4.697,3.777,68.59,
805425697838,805423697838,805.425697838,805.423697838,1768551565.274558,-0.066,0.082,0.995,0.0,0.0,-0.183,-30.121,-50.843,-59.059,4.697,3.777,68.588,
805435905240,805433905240,805.43590524,805.43390524,1768551565.2847683,-0.066,0.082,0.995,0.0,0.0,0.0,-30.095,-50.83,-59.046,4.697,3.777,68.586,
805446317986,805444317986,805.446317986,805.444317986,1768551565.2951813,-0.066,0.082,0.995,0.0,0.0,-0.183,-30.121,-50.817,-59.02,4.697,3.777,68.584,
805456512846,805454512846,805.456512846,805.454512846,1768551565.305377,-0.066,0.082,0.995,0.0,0.0,-0.183,-30.108,-50.83,-59.02,4.697,3.777,68.582,
805466752041,805464752041,805.466752041,805.464752041,1768551565.3156157,-0.066,0.082,0.995,0.0,0.0,-0.183,-30.108,-50.817,-59.033,4.697,3.777,68.581,
805476948359,805474948359,805.476948359,805.474948359,1768551565.3258138,-0.066,0.082,0.995,0.0,0.0,-0.183,-30.147,-50.804,-59.046,4.697,3.777,68.579,
805487243558,805485243558,805.487243558,805.485243558,1768551565.3360486,-0.066,0.082,0.995,0.0,0.0,-0.183,-30.147,-50.804,-59.046,4.697,3.777,68.577,
805497650762,805495650762,805.497650762,805.495650762,1768551565.3464255,-0.066,0.082,0.995,0.0,0.0,-0.183,-30.147,-50.804,-59.059,4.697,3.777,68.575,
805507766284,805505766284,805.507766284,805.505766284,1768551565.3566315,-0.066,0.082,0.995,0.0,0.0,-0.122,-30.147,-50.804,-59.046,4.697,3.777,68.573,
805518004605,805516004605,805.518004605,805.516004605,1768551565.3668492,-0.066,0.082,0.995,0.0,0.0,0.0,-30.121,-50.804,-59.059,4.697,3.777,68.571,
805528243509,805526243509,805.528243509,805.526243509,1768551565.3770657,-0.066,0.082,0.995,0.0,0.0,-0.183,-30.134,-50.817,-59.072,4.697,3.777,68.569,
805538370115,805536370115,805.538370115,805.536370115,1768551565.387232,-0.066,0.082,0.995,0.0,0.0,-0.183,-30.121,-50.83,-59.072,4.697,3.777,68.567,
805548629728,805546629728,805.548629728,805.546629728,1768551565.3974938,-0.066,0.082,0.995,0.0,0.0,-0.183,-30.121,-50.843,-59.046,4.697,3.777,68.565,
805558852881,805556852881,805.558852881,805.556852881,1768551565.4077177,-0.066,0.082,0.995,0.0,0.0,-0.183,-30.121,-50.843,-59.059,4.697,3.777,68.563,
805569078951,805567078951,805.569078951,805.567078951,1768551565.41794,-0.066,0.082,0.995,0.0,0.0,-0.183,-30.108,-50.843,-59.046,4.697,3.777,68.561,
805579539533,805577539533,805.579539533,805.577539533,1768551565.428319,-0.066,0.082,0.995,0.0,0.0,-0.183,-30.121,-50.83,-59.059,4.697,3.777,68.559,
805589673139,805587673139,805.589673139,805.587673139,1768551565.43853,-0.066,0.082,0.995,0.0,0.0,-0.183,-30.121,-50.83,-59.046,4.697,3.777,68.558,
805599881125,805597881125,805.599881125,805.597881125,1768551565.4487445,-0.066,0.082,0.995,0.0,0.0,-0.183,-30.134,-50.804,-59.059,4.697,3.777,68.556,
805610171365,805608171365,805.610171365,805.608171365,1768551565.458963,-0.066,0.082,0.995,0.0,0.0,-0.183,-30.16,-50.817,-58.981,4.697,3.777,68.554,
805620351932,805618351932,805.620351932,805.618351932,1768551565.4691947,-0.066,0.082,0.995,0.0,0.0,-0.183,-30.147,-50.804,-58.981,4.697,3.777,68.552,
805630622046,805628622046,805.630622046,805.628622046,1768551565.4793987,-0.066,0.082,0.995,0.0,0.0,-0.183,-30.16,-50.817,-58.981,4.697,3.777,68.55,
805640754194,805638754194,805.640754194,805.638754194,1768551565.489616,-0.066,0.082,0.995,0.0,0.0,-0.183,-30.173,-50.817,-58.968,4.697,3.777,68.548,
805651004182,805649004182,805.651004182,805.649004182,1768551565.4998214,-0.066,0.082,0.995,0.0,0.0,0.0,-30.16,-50.83,-58.955,4.697,3.777,68.546,
805661415761,805659415761,805.661415761,805.659415761,1768551565.5102127,-0.066,0.082,0.995,0.0,0.0,-0.183,-30.173,-50.83,-58.981,4.697,3.777,68.544,
805671660790,805669660790,805.67166079,805.66966079,1768551565.5204358,-0.066,0.082,0.995,0.0,0.0,-0.183,-30.173,-50.843,-58.968,4.697,3.777,68.542,
805681859733,805679859733,805.681859733,805.679859733,1768551565.5306404,-0.066,0.082,0.995,0.0,0.0,-0.183,-30.173,-50.843,-58.968,4.697,3.777,68.54,
805691983423,805689983423,805.691983423,805.689983423,1768551565.540849,-0.066,0.082,0.995,0.0,0.0,0.0,-30.147,-50.869,-58.968,4.697,3.777,68.538,
805702210076,805700210076,805.702210076,805.700210076,1768551565.5510752,-0.066,0.082,0.995,0.0,0.0,-0.122,-30.147,-50.856,-58.968,4.697,3.777,68.536,
805712417478,805710417478,805.712417478,805.710417478,1768551565.5612826,-0.066,0.082,0.995,0.0,0.0,-0.183,-30.147,-50.856,-58.981,4.697,3.777,68.535,
805722646173,805720646173,805.722646173,805.720646173,1768551565.571495,-0.066,0.082,0.995,0.0,0.0,-0.183,-30.147,-50.83,-59.02,4.697,3.777,68.533,
805733033834,805731033834,805.733033834,805.731033834,1768551565.5818765,-0.066,0.082,0.995,0.0,0.0,0.0,-30.108,-50.83,-59.046,4.697,3.777,68.531,
805743229569,805741229569,805.743229569,805.741229569,1768551565.5920932,-0.066,0.082,0.995,0.0,0.0,-0.183,-30.147,-50.791,-59.046,4.697,3.777,68.529,
805753469056,805751469056,805.753469056,805.751469056,1768551565.6023273,-0.066,0.082,0.995,0.0,0.0,-0.183,-30.134,-50.804,-59.033,4.697,3.777,68.527,
805763660708,805761660708,805.763660708,805.761660708,1768551565.6125288,-0.066,0.082,0.995,0.0,0.0,-0.183,-30.121,-50.804,-59.059,4.697,3.777,68.525,
805773872777,805771872777,805.773872777,805.771872777,1768551565.6227374,-0.066,0.082,0.995,0.0,0.0,-0.183,-30.095,-50.817,-59.059,4.697,3.777,68.523,
805784340651,805782340651,805.784340651,805.782340651,1768551565.6331208,-0.066,0.082,0.995,0.0,0.0,-0.183,-30.121,-50.804,-59.072,4.697,3.777,68.521,
805794291373,805792291373,805.794291373,805.792291373,1768551565.6431568,-0.066,0.082,0.995,0.0,0.0,-0.183,-30.108,-50.804,-59.085,4.697,3.777,68.519,
805804605822,805802605822,805.804605822,805.802605822,1768551565.6533864,-0.066,0.082,0.995,0.0,0.0,-0.183,-30.121,-50.804,-59.059,4.697,3.777,68.517,
805814754596,805812754596,805.814754596,805.812754596,1768551565.6636043,-0.066,0.082,0.995,0.0,0.0,-0.183,-30.108,-50.83,-59.072,4.697,3.777,68.515,
805824972207,805822972207,805.824972207,805.822972207,1768551565.6738281,-0.066,0.082,0.995,0.0,0.0,0.0,-30.121,-50.856,-59.072,4.697,3.777,68.514,
805835175234,805833175234,805.835175234,805.833175234,1768551565.684032,-0.066,0.082,0.995,0.0,0.0,-0.183,-30.108,-50.843,-59.059,4.697,3.777,68.511,
805845594981,805843594981,805.845594981,805.843594981,1768551565.694458,-0.066,0.082,0.995,0.0,0.0,-0.183,-30.121,-50.83,-59.033,4.697,3.777,68.51,
805855776423,805853776423,805.855776423,805.853776423,1768551565.704634,-0.066,0.082,0.995,0.0,0.0,-0.183,-30.121,-50.817,-58.994,4.697,3.777,68.508,
805866157376,805864157376,805.866157376,805.864157376,1768551565.7150226,-0.066,0.082,0.995,0.0,0.0,-0.183,-30.134,-50.817,-58.994,4.697,3.777,68.505,
805876462783,805874462783,805.876462783,805.874462783,1768551565.72524,-0.066,0.082,0.995,0.0,0.0,-0.183,-30.134,-50.83,-58.981,4.697,3.777,68.504,
805886595515,805884595515,805.886595515,805.884595515,1768551565.7354586,-0.066,0.082,0.995,0.0,0.0,-0.183,-30.134,-50.804,-59.033,4.697,3.777,68.502,
805896886921,805894886921,805.896886921,805.894886921,1768551565.7456682,-0.066,0.082,0.995,0.0,0.0,-0.183,-30.121,-50.817,-59.059,4.697,3.777,68.5,
805907019945,805905019945,805.907019945,805.905019945,1768551565.7558842,-0.066,0.082,0.995,0.0,0.0,-0.183,-30.147,-50.817,-59.059,4.697,3.777,68.498,
805917432107,805915432107,805.917432107,805.915432107,1768551565.7662756,-0.066,0.082,0.995,0.0,0.0,-0.183,-30.134,-50.83,-59.072,4.697,3.777,68.496,
805927478210,805925478210,805.92747821,805.92547821,1768551565.7763376,-0.066,0.082,0.995,0.0,0.0,-0.183,-30.121,-50.83,-59.072,4.697,3.777,68.494,
805937849828,805935849828,805.937849828,805.935849828,1768551565.7867112,-0.066,0.082,0.995,0.0,0.0,-0.183,-30.121,-50.843,-59.072,4.697,3.777,68.492,
805948056939,805946056939,805.948056939,805.946056939,1768551565.796921,-0.066,0.082,0.995,0.0,0.0,0.0,-30.121,-50.856,-59.085,4.697,3.777,68.49,
805958300510,805956300510,805.95830051,805.95630051,1768551565.807138,-0.066,0.082,0.995,0.0,0.0,-0.183,-30.121,-50.856,-59.072,4.697,3.777,68.488,
805968590166,805966590166,805.968590166,805.966590166,1768551565.8173642,-0.066,0.082,0.995,0.0,0.0,-0.183,-30.108,-50.856,-59.072,4.697,3.777,68.486,
805978723481,805976723481,805.978723481,805.976723481,1768551565.827589,-0.066,0.082,0.995,0.0,0.0,-0.183,-30.108,-50.843,-59.072,4.697,3.777,68.484,
805989097142,805987097142,805.989097142,805.987097142,1768551565.837963,-0.066,0.082,0.995,0.0,0.0,0.0,-30.108,-50.83,-59.059,4.697,3.777,68.482,
805999346546,805997346546,805.999346546,805.997346546,1768551565.8482122,-0.066,0.082,0.995,0.0,0.0,-0.183,-30.108,-50.843,-59.072,4.697,3.777,68.48,
806009525655,806007525655,806.009525655,806.007525655,1768551565.8583906,-0.066,0.082,0.995,0.0,0.0,-0.183,-30.121,-50.843,-59.059,4.697,3.777,68.478,
806019756100,806017756100,806.0197561,806.0177561,1768551565.8686054,-0.066,0.082,0.995,0.0,0.0,-0.183,-30.147,-50.817,-59.046,4.697,3.777,68.476,
806029987712,806027987712,806.029987712,806.027987712,1768551565.8788478,-0.066,0.082,0.995,0.0,0.0,0.0,-30.16,-50.83,-59.059,4.697,3.777,68.475,
806040369248,806038369248,806.040369248,806.038369248,1768551565.8892171,-0.066,0.082,0.995,0.0,0.0,-0.183,-30.147,-50.804,-59.059,4.697,3.777,68.472,
806050563233,806048563233,806.050563233,806.048563233,1768551565.8994267,-0.066,0.082,0.995,0.0,0.0,-0.183,-30.134,-50.804,-59.059,4.697,3.777,68.47,
806060778802,806058778802,806.060778802,806.058778802,1768551565.9096434,-0.066,0.082,0.995,0.0,0.0,-0.183,-30.147,-50.817,-59.033,4.697,3.777,68.468,
806071032290,806069032290,806.07103229,806.06903229,1768551565.9198601,-0.066,0.082,0.995,0.0,0.0,0.0,-30.147,-50.83,-59.033,4.697,3.777,68.467,
806081233567,806079233567,806.081233567,806.079233567,1768551565.930095,-0.066,0.082,0.995,0.0,0.0,-0.183,-30.16,-50.817,-59.033,4.697,3.777,68.464,
806091429885,806089429885,806.091429885,806.089429885,1768551565.9402955,-0.066,0.082,0.995,0.0,0.0,-0.183,-30.147,-50.856,-59.033,4.697,3.777,68.463,
806101648079,806099648079,806.101648079,806.099648079,1768551565.9505167,-0.066,0.082,0.995,0.0,0.0,-0.122,-30.147,-50.843,-59.02,4.697,3.777,68.461,
806111872691,806109872691,806.111872691,806.109872691,1768551565.9607303,-0.066,0.082,0.995,0.0,0.0,-0.122,-30.147,-50.856,-59.007,4.697,3.777,68.459,
806122109553,806120109553,806.122109553,806.120109553,1768551565.9709568,-0.066,0.082,0.995,0.0,0.0,-0.122,-30.134,-50.843,-58.994,4.697,3.777,68.457,
806132487297,806130487297,806.132487297,806.130487297,1768551565.9813447,-0.066,0.082,0.995,0.0,0.0,-0.122,-30.134,-50.856,-59.007,4.697,3.777,68.455,
806142689740,806140689740,806.14268974,806.14068974,1768551565.9915526,-0.066,0.082,0.995,0.0,0.0,-0.183,-30.121,-50.843,-59.007,4.697,3.777,68.453,
806152852224,806150852224,806.152852224,806.150852224,1768551566.0017178,-0.066,0.082,0.995,0.0,0.0,-0.183,-30.108,-50.83,-59.007,4.697,3.777,68.452,
806163165214,806161165214,806.163165214,806.161165214,1768551566.0119913,-0.066,0.082,0.995,0.0,0.0,-0.183,-30.16,-50.804,-58.981,4.697,3.777,68.449,
806173403827,806171403827,806.173403827,806.171403827,1768551566.022223,-0.066,0.082,0.995,0.0,0.0,-0.122,-30.147,-50.804,-59.033,4.697,3.777,68.448,
806183594311,806181594311,806.183594311,806.181594311,1768551566.03242,-0.066,0.082,0.995,0.0,0.0,-0.122,-30.16,-50.804,-59.046,4.697,3.777,68.446,
806193773128,806191773128,806.193773128,806.191773128,1768551566.042639,-0.066,0.082,0.995,0.0,0.0,-0.122,-30.134,-50.817,-59.059,4.697,3.777,68.444,
806204010574,806202010574,806.204010574,806.202010574,1768551566.0528586,-0.066,0.082,0.995,0.0,0.0,0.0,-30.121,-50.791,-59.059,4.697,3.777,68.442,
806214560410,806212560410,806.21456041,806.21256041,1768551566.0632508,-0.066,0.082,0.995,0.0,0.0,-0.122,-30.134,-50.817,-59.072,4.697,3.777,68.44,
806224761979,806222761979,806.224761979,806.222761979,1768551566.0734792,-0.066,0.082,0.995,0.0,0.0,-0.122,-30.147,-50.83,-59.059,4.697,3.777,68.439,
806234800789,806232800789,806.234800789,806.232800789,1768551566.0835154,-0.066,0.082,0.995,0.0,0.0,-0.122,-30.147,-50.843,-59.059,4.697,3.777,68.437,
806245190200,806243190200,806.2451902,806.2431902,1768551566.0939045,-0.066,0.082,0.995,0.0,0.0,0.0,-30.134,-50.843,-59.072,4.697,3.777,68.435,
806255406936,806253406936,806.255406936,806.253406936,1768551566.104128,-0.066,0.082,0.995,0.0,0.0,-0.183,-30.108,-50.856,-59.046,4.697,3.777,68.433,
806265838642,806263838642,806.265838642,806.263838642,1768551566.1145525,-0.066,0.082,0.995,0.0,0.0,-0.183,-30.134,-50.843,-59.046,4.697,3.777,68.431,
806276047502,806274047502,806.276047502,806.274047502,1768551566.1247668,-0.066,0.082,0.995,0.0,0.0,-0.183,-30.108,-50.843,-59.059,4.697,3.777,68.429,
806286286989,806284286989,806.286286989,806.284286989,1768551566.1350033,-0.066,0.082,0.995,0.0,0.0,-0.183,-30.134,-50.83,-59.072,4.697,3.777,68.427,
806296551853,806294551853,806.296551853,806.294551853,1768551566.1452656,-0.066,0.082,0.995,0.0,0.0,-0.183,-30.134,-50.83,-59.059,4.697,3.777,68.425,
806306752255,806304752255,806.306752255,806.304752255,1768551566.1554265,-0.066,0.082,0.995,0.0,0.0,-0.122,-30.134,-50.791,-59.072,4.697,3.777,68.423,
806316932530,806314932530,806.31693253,806.31493253,1768551566.165647,-0.066,0.082,0.995,0.0,0.0,-0.122,-30.134,-50.804,-59.072,4.697,3.777,68.421,
806327054762,806325054762,806.327054762,806.325054762,1768551566.1757746,-0.066,0.082,0.995,0.0,0.0,0.0,-30.134,-50.804,-59.072,4.697,3.777,68.42,
806337551804,806335551804,806.337551804,806.335551804,1768551566.1862693,-0.066,0.082,0.995,0.0,0.0,-0.122,-30.121,-50.817,-59.085,4.697,3.777,68.418,
806347734705,806345734705,806.347734705,806.345734705,1768551566.1964629,-0.066,0.082,0.995,0.0,0.0,-0.183,-30.121,-50.817,-59.072,4.697,3.777,68.416,
806358327418,806356327418,806.358327418,806.356327418,1768551566.2069287,-0.066,0.082,0.995,0.0,0.0,-0.183,-30.134,-50.817,-59.085,4.697,3.777,68.414,
806368215721,806366215721,806.368215721,806.366215721,1768551566.2169094,-0.066,0.082,0.995,0.0,0.0,-0.183,-30.121,-50.843,-59.163,4.697,3.777,68.412,
806378501293,806376501293,806.378501293,806.376501293,1768551566.2271492,-0.066,0.082,0.995,0.0,0.0,-0.183,-30.095,-50.869,-59.15,4.697,3.777,68.41,
806388803492,806386803492,806.388803492,806.386803492,1768551566.2375145,-0.066,0.082,0.995,0.0,0.0,-0.183,-30.095,-50.869,-59.15,4.697,3.777,68.408,
806398829177,806396829177,806.398829177,806.396829177,1768551566.2475474,-0.066,0.082,0.995,0.0,0.0,-0.183,-30.121,-50.869,-59.124,4.697,3.777,68.406,
806409059038,806407059038,806.409059038,806.407059038,1768551566.257778,-0.066,0.082,0.995,0.0,0.0,-0.183,-30.134,-50.869,-59.02,4.697,3.777,68.404,
806419259732,806417259732,806.419259732,806.417259732,1768551566.2679765,-0.066,0.082,0.995,0.0,0.0,-0.183,-30.108,-50.843,-59.033,4.697,3.777,68.402,
806429520512,806427520512,806.429520512,806.427520512,1768551566.2782013,-0.066,0.082,0.995,0.0,0.0,-0.183,-30.134,-50.843,-59.007,4.697,3.777,68.401,
806439879005,806437879005,806.439879005,806.437879005,1768551566.2885907,-0.066,0.082,0.995,0.0,0.0,-0.183,-30.134,-50.83,-59.02,4.697,3.777,68.399,
806450085240,806448085240,806.45008524,806.44808524,1768551566.2988052,-0.066,0.082,0.995,0.0,0.0,-0.183,-30.134,-50.83,-59.033,4.697,3.777,68.397,
806460322977,806458322977,806.460322977,806.458322977,1768551566.3090417,-0.066,0.082,0.995,0.0,0.0,-0.122,-30.147,-50.817,-59.02,4.697,3.777,68.395,
806470556631,806468556631,806.470556631,806.468556631,1768551566.3192775,-0.066,0.082,0.995,0.0,0.0,-0.183,-30.134,-50.83,-59.033,4.697,3.777,68.393,
806480729906,806478729906,806.480729906,806.478729906,1768551566.3294532,-0.066,0.082,0.995,0.0,0.0,-0.183,-30.147,-50.83,-59.033,4.697,3.777,68.391,
806490955101,806488955101,806.490955101,806.488955101,1768551566.3396783,-0.066,0.082,0.995,0.0,0.0,-0.183,-30.147,-50.83,-59.046,4.697,3.777,68.389,
806501185838,806499185838,806.501185838,806.499185838,1768551566.3499057,-0.066,0.082,0.995,0.0,0.0,0.0,-30.147,-50.83,-59.059,4.697,3.777,68.387,
806511599750,806509599750,806.51159975,806.50959975,1768551566.3602786,-0.066,0.082,0.995,0.0,0.0,-0.183,-30.121,-50.856,-59.059,4.697,3.777,68.385,
806521660145,806519660145,806.521660145,806.519660145,1768551566.3703349,-0.066,0.082,0.995,0.0,0.0,-0.183,-30.121,-50.856,-59.059,4.697,3.777,68.383,
806532007263,806530007263,806.532007263,806.530007263,1768551566.3807204,-0.066,0.082,0.995,0.0,0.0,-0.122,-30.121,-50.869,-59.046,4.697,3.777,68.382,
806542051906,806540051906,806.542051906,806.540051906,1768551566.390771,-0.066,0.082,0.995,0.0,0.0,-0.122,-30.121,-50.856,-59.02,4.697,3.777,68.38,
806552240349,806550240349,806.552240349,806.550240349,1768551566.4009366,-0.066,0.082,0.995,0.0,0.0,-0.122,-30.108,-50.869,-59.059,4.697,3.777,68.378,
806562442209,806560442209,806.562442209,806.560442209,1768551566.411159,-0.066,0.082,0.995,0.0,0.0,-0.122,-30.147,-50.843,-59.02,4.697,3.777,68.376,
806572650778,806570650778,806.572650778,806.570650778,1768551566.4213758,-0.066,0.082,0.995,0.0,0.0,-0.122,-30.121,-50.843,-59.007,4.697,3.777,68.374,
806583444752,806581444752,806.583444752,806.581444752,1768551566.432008,-0.066,0.082,0.995,0.0,0.0,-0.122,-30.147,-50.83,-59.007,4.697,3.777,68.373,
806593265968,806591265968,806.593265968,806.591265968,1768551566.4419613,-0.066,0.082,0.995,0.0,0.0,-0.122,-30.108,-50.83,-59.137,4.697,3.777,68.371,
806604554342,806602554342,806.604554342,806.602554342,1768551566.4532495,-0.066,0.082,0.995,0.0,0.0,-0.183,-30.108,-50.817,-59.085,4.697,3.777,68.369,
806614550859,806612550859,806.614550859,806.612550859,1768551566.4632716,-0.066,0.082,0.995,0.0,0.0,-0.183,-30.134,-50.83,-59.046,4.697,3.777,68.367,
806624939395,806622939395,806.624939395,806.622939395,1768551566.473655,-0.066,0.082,0.995,0.0,0.0,-0.183,-30.173,-50.817,-59.02,4.697,3.777,68.365,
806635167507,806633167507,806.635167507,806.633167507,1768551566.483884,-0.066,0.082,0.995,0.0,0.0,-0.183,-30.16,-50.83,-59.02,4.697,3.777,68.363,
806645414578,806643414578,806.645414578,806.643414578,1768551566.4941103,-0.066,0.082,0.995,0.0,0.0,-0.183,-30.147,-50.817,-59.02,4.697,3.777,68.361,
806655592812,806653592812,806.655592812,806.653592812,1768551566.5043147,-0.066,0.082,0.995,0.0,0.0,-0.183,-30.16,-50.83,-59.033,4.697,3.777,68.359,
806666082562,806664082562,806.666082562,806.664082562,1768551566.5146909,-0.066,0.082,0.995,0.0,0.0,-0.183,-30.147,-50.83,-59.046,4.697,3.777,68.357,
806686648457,806684648457,806.686648457,806.684648457,1768551566.5353131,-0.066,0.082,0.995,0.0,0.0,-0.183,-30.134,-50.83,-59.163,4.697,3.777,68.353,
806696856151,806694856151,806.696856151,806.694856151,1768551566.5455759,-0.066,0.082,0.995,0.0,0.0,-0.183,-30.095,-50.843,-59.059,4.697,3.777,68.351,
806707074929,806705074929,806.707074929,806.705074929,1768551566.555793,-0.066,0.082,0.995,0.0,0.0,-0.183,-30.121,-50.856,-59.02,4.697,3.777,68.349,
806717318791,806715318791,806.717318791,806.715318791,1768551566.566015,-0.066,0.082,0.995,0.0,0.0,-0.183,-30.121,-50.856,-58.994,4.697,3.777,68.347,
806727521234,806725521234,806.727521234,806.725521234,1768551566.5762231,-0.066,0.082,0.995,0.0,0.0,-0.183,-30.134,-50.843,-59.007,4.697,3.777,68.345,
806737754888,806735754888,806.737754888,806.735754888,1768551566.5864358,-0.066,0.082,0.995,0.0,0.0,-0.183,-30.134,-50.843,-58.994,4.697,3.777,68.343,
806747951498,806745951498,806.747951498,806.745951498,1768551566.5966694,-0.066,0.082,0.995,0.0,0.0,-0.183,-30.134,-50.83,-58.994,4.697,3.777,68.341,
806758159192,806756159192,806.758159192,806.756159192,1768551566.6068718,-0.066,0.082,0.995,0.0,0.0,-0.183,-30.16,-50.83,-58.994,4.697,3.777,68.339,
806768368927,806766368927,806.768368927,806.766368927,1768551566.617089,-0.066,0.082,0.995,0.0,0.0,-0.122,-30.173,-50.83,-58.981,4.697,3.777,68.337,
806778583038,806776583038,806.778583038,806.776583038,1768551566.6273005,-0.066,0.082,0.995,0.0,0.0,-0.122,-30.16,-50.83,-59.02,4.697,3.777,68.336,
806788814650,806786814650,806.78881465,806.78681465,1768551566.6375337,-0.066,0.082,0.995,0.0,0.0,-0.183,-30.147,-50.843,-59.046,4.697,3.777,68.334,
806798981508,806796981508,806.798981508,806.796981508,1768551566.647697,-0.066,0.082,0.995,0.0,0.0,-0.183,-30.134,-50.843,-59.059,4.697,3.777,68.332,
806809250747,806807250747,806.809250747,806.807250747,1768551566.6579154,-0.066,0.082,0.995,0.0,0.0,0.0,-30.121,-50.843,-59.059,4.697,3.777,68.33,
806819410313,806817410313,806.819410313,806.817410313,1768551566.6681306,-0.066,0.082,0.995,0.0,0.0,-0.183,-30.121,-50.869,-59.046,4.697,3.777,68.328,
806829631424,806827631424,806.829631424,806.827631424,1768551566.678348,-0.066,0.082,0.995,0.0,0.0,-0.183,-30.134,-50.856,-59.046,4.697,3.777,68.326,
806839860994,806837860994,806.839860994,806.837860994,1768551566.688569,-0.066,0.082,0.995,0.0,0.0,-0.183,-30.134,-50.856,-59.046,4.697,3.777,68.324,
806850061688,806848061688,806.850061688,806.848061688,1768551566.6987822,-0.066,0.082,0.995,0.0,0.0,-0.183,-30.134,-50.856,-59.033,4.697,3.777,68.322,
806860666361,806858666361,806.860666361,806.858666361,1768551566.7091694,-0.066,0.082,0.995,0.0,0.0,-0.122,-30.147,-50.83,-59.033,4.697,3.777,68.32,
806871074731,806869074731,806.871074731,806.869074731,1768551566.719616,-0.066,0.082,0.995,0.0,0.0,-0.183,-30.147,-50.843,-59.007,4.697,3.777,68.318,
806883845141,806881845141,806.883845141,806.881845141,1768551566.7318726,-0.066,0.082,0.995,0.0,0.0,-0.183,-30.134,-50.817,-59.15,4.697,3.777,68.316,
806893366216,806891366216,806.893366216,806.891366216,1768551566.7419949,-0.066,0.082,0.995,0.0,0.0,-0.183,-30.108,-50.817,-59.137,4.697,3.777,68.314,
806903712167,806901712167,806.903712167,806.901712167,1768551566.752429,-0.066,0.082,0.995,0.0,0.0,-0.183,-30.121,-50.804,-59.059,4.697,3.777,68.312,
806913923944,806911923944,806.913923944,806.911923944,1768551566.7626374,-0.066,0.082,0.995,0.0,0.0,-0.183,-30.121,-50.83,-59.033,4.697,3.777,68.31,
806924095761,806922095761,806.924095761,806.922095761,1768551566.772811,-0.066,0.082,0.995,0.0,0.0,-0.183,-30.134,-50.843,-59.033,4.697,3.777,68.308,
806934381917,806932381917,806.934381917,806.932381917,1768551566.7830715,-0.066,0.082,0.995,0.0,0.0,-0.183,-30.108,-50.856,-59.02,4.697,3.777,68.306,
806945040843,806943040843,806.945040843,806.943040843,1768551566.7935262,-0.066,0.082,0.995,0.0,0.0,-0.183,-30.134,-50.83,-59.02,4.697,3.777,68.304,
806955299873,806953299873,806.955299873,806.953299873,1768551566.803882,-0.066,0.082,0.995,0.0,0.0,-0.183,-30.134,-50.869,-59.124,4.697,3.777,68.303,
806965046418,806963046418,806.965046418,806.963046418,1768551566.8137429,-0.066,0.082,0.995,0.0,0.0,-0.183,-30.095,-50.83,-59.176,4.697,3.777,68.301,
806975424745,806973424745,806.975424745,806.973424745,1768551566.8241377,-0.066,0.082,0.995,0.0,0.0,-0.183,-30.108,-50.83,-59.085,4.697,3.777,68.299,
806985631856,806983631856,806.985631856,806.983631856,1768551566.8343263,-0.066,0.082,0.995,0.0,0.0,-0.183,-30.095,-50.83,-59.098,4.697,3.777,68.297,
806995838675,806993838675,806.995838675,806.993838675,1768551566.8445437,-0.066,0.082,0.995,0.0,0.0,-0.183,-30.108,-50.83,-59.059,4.697,3.777,68.295,
807006309465,807004309465,807.006309465,807.004309465,1768551566.8549206,-0.066,0.082,0.995,0.0,0.0,-0.183,-30.121,-50.817,-59.046,4.697,3.777,68.293,
807016717544,807014717544,807.016717544,807.014717544,1768551566.8653178,-0.066,0.082,0.995,0.0,0.0,-0.183,-30.108,-50.817,-59.124,4.697,3.777,68.291,
807026426463,807024426463,807.026426463,807.024426463,1768551566.875145,-0.066,0.082,0.995,0.0,0.0,-0.183,-30.108,-50.804,-59.215,4.697,3.777,68.289,
807036885586,807034885586,807.036885586,807.034885586,1768551566.8855877,-0.066,0.082,0.995,0.0,0.0,-0.183,-30.108,-50.804,-59.15,4.697,3.778,68.287,
807046948897,807044948897,807.046948897,807.044948897,1768551566.8956633,-0.066,0.082,0.995,0.0,0.0,-0.183,-30.134,-50.804,-59.098,4.697,3.778,68.285,
807057300099,807055300099,807.057300099,807.055300099,1768551566.9060204,-0.066,0.082,0.995,0.0,0.0,0.0,-30.134,-50.83,-59.085,4.697,3.778,68.283,
807067588880,807065588880,807.06758888,807.06558888,1768551566.9162664,-0.066,0.082,0.995,0.0,0.0,-0.122,-30.108,-50.83,-59.059,4.697,3.778,68.281,
807077738529,807075738529,807.077738529,807.075738529,1768551566.926447,-0.066,0.082,0.995,0.0,0.0,-0.183,-30.121,-50.83,-59.046,4.697,3.778,68.28,
807087968099,807085968099,807.087968099,807.085968099,1768551566.936661,-0.066,0.082,0.995,0.0,0.0,-0.183,-30.134,-50.843,-59.033,4.697,3.778,68.278,
807098214295,807096214295,807.098214295,807.096214295,1768551566.9468958,-0.066,0.082,0.995,0.0,0.0,0.0,-30.147,-50.843,-59.033,4.697,3.778,68.276,
807108549162,807106549162,807.108549162,807.106549162,1768551566.9572704,-0.066,0.082,0.995,0.0,0.0,-0.183,-30.16,-50.843,-59.02,4.697,3.778,68.274,
807118760064,807116760064,807.118760064,807.116760064,1768551566.9674814,-0.066,0.082,0.995,0.0,0.0,-0.122,-30.16,-50.83,-59.007,4.697,3.778,68.272,
807129169894,807127169894,807.129169894,807.127169894,1768551566.9778833,-0.066,0.082,0.995,0.0,0.0,-0.122,-30.147,-50.83,-59.007,4.697,3.778,68.27,
807139395088,807137395088,807.139395088,807.137395088,1768551566.9880881,-0.066,0.082,0.995,0.0,0.0,-0.122,-30.147,-50.817,-58.994,4.697,3.778,68.269,
807149617366,807147617366,807.149617366,807.147617366,1768551566.9983063,-0.066,0.082,0.995,0.0,0.0,-0.122,-30.147,-50.83,-59.007,4.697,3.778,68.267,
807160177411,807158177411,807.160177411,807.158177411,1768551567.0087664,-0.066,0.082,0.995,0.0,0.0,-0.122,-30.16,-50.804,-59.007,4.697,3.778,68.265,
807170138634,807168138634,807.170138634,807.168138634,1768551567.0187995,-0.066,0.082,0.995,0.0,0.0,-0.122,-30.134,-50.791,-59.098,4.697,3.778,68.263,
807180329702,807178329702,807.180329702,807.178329702,1768551567.0290115,-0.066,0.082,0.995,0.0,0.0,0.0,-30.108,-50.817,-59.163,4.697,3.778,68.262,
807190479060,807188479060,807.19047906,807.18847906,1768551567.039186,-0.066,0.082,0.995,0.0,0.0,-0.183,-30.108,-50.817,-59.098,4.697,3.778,68.26,
807200691129,807198691129,807.200691129,807.198691129,1768551567.049404,-0.066,0.082,0.995,0.0,0.0,-0.183,-30.134,-50.843,-59.02,4.697,3.778,68.258,
807210925657,807208925657,807.210925657,807.208925657,1768551567.059616,-0.066,0.082,0.995,0.0,0.0,-0.183,-30.147,-50.869,-59.007,4.697,3.778,68.256,
807221113517,807219113517,807.221113517,807.219113517,1768551567.0698292,-0.066,0.082,0.995,0.0,0.0,-0.183,-30.134,-50.856,-58.994,4.697,3.778,68.254,
807231353587,807229353587,807.231353587,807.229353587,1768551567.0800607,-0.066,0.082,0.995,0.0,0.0,-0.183,-30.134,-50.869,-59.007,4.697,3.778,68.252,
807241563906,807239563906,807.241563906,807.239563906,1768551567.0902808,-0.066,0.082,0.995,0.0,0.0,-0.183,-30.134,-50.856,-59.007,4.697,3.778,68.25,
807251780059,807249780059,807.251780059,807.249780059,1768551567.100482,-0.066,0.082,0.995,0.0,0.0,-0.183,-30.121,-50.856,-59.007,4.697,3.778,68.248,
807261980169,807259980169,807.261980169,807.259980169,1768551567.110699,-0.066,0.082,0.995,0.0,0.0,-0.183,-30.134,-50.856,-59.007,4.697,3.778,68.246,
807276876355,807274876355,807.276876355,807.274876355,1768551567.1215153,-0.066,0.082,0.995,0.0,0.0,-0.183,-30.147,-50.856,-58.994,4.697,3.778,68.244,
807283055924,807281055924,807.283055924,807.281055924,1768551567.131611,-0.066,0.082,0.995,0.0,0.0,-0.183,-30.147,-50.83,-59.111,4.697,3.778,68.242,
807292874223,807290874223,807.292874223,807.290874223,1768551567.141584,-0.066,0.082,0.995,0.0,0.0,-0.183,-30.108,-50.817,-59.15,4.697,3.778,68.241,
807303085125,807301085125,807.303085125,807.301085125,1768551567.151782,-0.066,0.082,0.995,0.0,0.0,-0.183,-30.134,-50.791,-59.085,4.697,3.778,68.239,
807313277651,807311277651,807.313277651,807.311277651,1768551567.1619709,-0.066,0.082,0.995,0.0,0.0,0.0,-30.134,-50.843,-59.059,4.697,3.778,68.237,
807323518597,807321518597,807.323518597,807.321518597,1768551567.1722329,-0.066,0.082,0.995,0.0,0.0,-0.183,-30.16,-50.843,-59.02,4.697,3.778,68.235,
807333693331,807331693331,807.333693331,807.331693331,1768551567.1824105,-0.066,0.082,0.995,0.0,0.0,-0.183,-30.16,-50.83,-59.02,4.697,3.778,68.233,
807343942735,807341942735,807.343942735,807.341942735,1768551567.192661,-0.066,0.082,0.995,0.0,0.0,-0.183,-30.16,-50.83,-59.033,4.697,3.778,68.231,
807354283436,807352283436,807.354283436,807.352283436,1768551567.2029352,-0.066,0.082,0.995,0.0,0.0,-0.183,-30.147,-50.843,-59.02,4.697,3.778,68.229,
807364694432,807362694432,807.364694432,807.362694432,1768551567.2133799,-0.066,0.082,0.995,0.0,0.0,-0.122,-30.16,-50.856,-59.085,4.697,3.778,68.227,
807374776994,807372776994,807.374776994,807.372776994,1768551567.2234926,-0.066,0.082,0.995,0.0,0.0,-0.122,-30.134,-50.856,-59.137,4.697,3.778,68.225,
807384984396,807382984396,807.384984396,807.382984396,1768551567.2337046,-0.066,0.082,0.995,0.0,0.0,-0.183,-30.134,-50.856,-59.072,4.697,3.778,68.223,
807395222133,807393222133,807.395222133,807.393222133,1768551567.2439404,-0.066,0.082,0.995,0.0,0.0,0.0,-30.16,-50.869,-59.02,4.697,3.778,68.221,
807405611836,807403611836,807.405611836,807.403611836,1768551567.2543266,-0.066,0.082,0.995,0.0,0.0,-0.183,-30.173,-50.856,-59.007,4.697,3.778,68.219,
807415828864,807413828864,807.415828864,807.413828864,1768551567.2645328,-0.066,0.082,0.995,0.0,0.0,-0.183,-30.16,-50.856,-59.02,4.697,3.778,68.217,
807426035391,807424035391,807.426035391,807.424035391,1768551567.2747567,-0.066,0.082,0.995,0.0,0.0,-0.183,-30.147,-50.843,-59.02,4.697,3.778,68.216,
807436254461,807434254461,807.436254461,807.434254461,1768551567.284972,-0.066,0.082,0.995,0.0,0.0,0.0,-30.134,-50.817,-59.033,4.697,3.778,68.214,
807446507948,807444507948,807.446507948,807.444507948,1768551567.295217,-0.066,0.082,0.995,0.0,0.0,-0.183,-30.134,-50.83,-59.033,4.697,3.778,68.212,
807456701058,807454701058,807.456701058,807.454701058,1768551567.3054078,-0.066,0.082,0.995,0.0,0.0,-0.183,-30.121,-50.83,-59.046,4.697,3.778,68.21,
807467082886,807465082886,807.467082886,807.465082886,1768551567.3157947,-0.066,0.082,0.995,0.0,0.0,-0.183,-30.147,-50.817,-59.033,4.697,3.778,68.208,
807477302539,807475302539,807.477302539,807.475302539,1768551567.3260188,-0.066,0.082,0.995,0.0,0.0,0.0,-30.147,-50.843,-59.046,4.697,3.778,68.206,
807487506441,807485506441,807.487506441,807.485506441,1768551567.3362265,-0.066,0.082,0.995,0.0,0.0,-0.183,-30.147,-50.843,-59.02,4.697,3.778,68.204,
807497943105,807495943105,807.497943105,807.495943105,1768551567.3464587,-0.066,0.082,0.995,0.0,0.0,-0.183,-30.16,-50.856,-59.007,4.697,3.778,68.202,
807508236845,807506236845,807.508236845,807.506236845,1768551567.3569012,-0.066,0.082,0.995,0.0,0.0,-0.183,-30.147,-50.843,-59.007,4.697,3.778,68.2,
807518386494,807516386494,807.518386494,807.516386494,1768551567.3670936,-0.066,0.082,0.995,0.0,0.0,-0.183,-30.108,-50.856,-59.137,4.697,3.778,68.198,
807528401678,807526401678,807.528401678,807.526401678,1768551567.3770602,-0.066,0.082,0.995,0.0,0.0,-0.183,-30.134,-50.856,-59.15,4.697,3.778,68.196,
807538772713,807536772713,807.538772713,807.536772713,1768551567.3874924,-0.066,0.082,0.995,0.0,0.0,-0.183,-30.121,-50.843,-59.046,4.697,3.778,68.194,
807548995283,807546995283,807.548995283,807.546995283,1768551567.3977137,-0.066,0.082,0.995,0.0,0.0,-0.183,-30.134,-50.843,-59.02,4.697,3.778,68.192,
807559198310,807557198310,807.55919831,807.55719831,1768551567.4079192,-0.066,0.082,0.995,0.0,0.0,0.0,-30.121,-50.83,-59.007,4.697,3.778,68.19,
807569638766,807567638766,807.569638766,807.567638766,1768551567.4183338,-0.066,0.082,0.995,0.0,0.0,-0.183,-30.134,-50.817,-59.007,4.696,3.778,68.188,
807579809416,807577809416,807.579809416,807.577809416,1768551567.4285293,-0.066,0.082,0.995,0.0,0.0,-0.183,-30.147,-50.817,-59.02,4.696,3.778,68.186,
807590039569,807588039569,807.590039569,807.588039569,1768551567.4387438,-0.066,0.082,0.995,0.0,0.0,-0.183,-30.147,-50.83,-59.02,4.696,3.778,68.184,
807600255138,807598255138,807.600255138,807.598255138,1768551567.4489665,-0.066,0.082,0.995,0.0,0.0,0.0,-30.147,-50.83,-59.02,4.696,3.778,68.182,
807610600506,807608600506,807.610600506,807.608600506,1768551567.4593153,-0.066,0.082,0.995,0.0,0.0,-0.183,-30.121,-50.843,-59.02,4.696,3.778,68.18,
807620860703,807618860703,807.620860703,807.618860703,1768551567.4695766,-0.066,0.082,0.995,0.0,0.0,-0.183,-30.134,-50.83,-59.033,4.696,3.778,68.178,
807631091731,807629091731,807.631091731,807.629091731,1768551567.4797885,-0.066,0.082,0.995,0.0,0.0,-0.183,-30.134,-50.843,-59.033,4.696,3.778,68.176,
807641295633,807639295633,807.641295633,807.639295633,1768551567.4900103,-0.066,0.082,0.995,0.0,0.0,0.0,-30.121,-50.843,-59.007,4.696,3.778,68.174,
807651669877,807649669877,807.651669877,807.649669877,1768551567.50039,-0.066,0.082,0.995,0.0,0.0,-0.122,-30.121,-50.869,-59.007,4.696,3.778,68.172,
807661889238,807659889238,807.661889238,807.659889238,1768551567.5106025,-0.066,0.082,0.995,0.0,0.0,-0.122,-30.121,-50.869,-58.994,4.696,3.778,68.17,
807672103932,807670103932,807.672103932,807.670103932,1768551567.5208251,-0.066,0.082,0.995,0.0,0.0,-0.122,-30.121,-50.856,-59.007,4.696,3.778,68.169,
807682493344,807680493344,807.682493344,807.680493344,1768551567.5312152,-0.066,0.082,0.995,0.0,0.0,-0.183,-30.16,-50.843,-58.994,4.697,3.778,68.167,
807692739831,807690739831,807.692739831,807.690739831,1768551567.5414228,-0.066,0.082,0.995,0.0,0.0,-0.183,-30.134,-50.843,-58.994,4.697,3.778,68.165,
807702907273,807700907273,807.702907273,807.700907273,1768551567.551636,-0.066,0.082,0.995,0.0,0.0,-0.183,-30.16,-50.817,-59.02,4.697,3.778,68.163,
807713817336,807711817336,807.713817336,807.711817336,1768551567.5622773,-0.066,0.082,0.995,0.0,0.0,0.0,-30.134,-50.83,-59.085,4.697,3.778,68.161,
807723639135,807721639135,807.723639135,807.721639135,1768551567.5723333,-0.066,0.082,0.995,0.0,0.0,-0.183,-30.108,-50.791,-59.176,4.697,3.778,68.159,
807733918000,807731918000,807.733918,807.731918,1768551567.5826087,-0.066,0.082,0.995,0.0,0.0,-0.122,-30.095,-50.804,-59.163,4.697,3.778,68.157,
807744153695,807742153695,807.744153695,807.742153695,1768551567.5928488,-0.066,0.082,0.995,0.0,0.0,-0.122,-30.108,-50.804,-59.085,4.697,3.778,68.155,
807754342721,807752342721,807.754342721,807.752342721,1768551567.6030562,-0.066,0.082,0.995,0.0,0.0,0.0,-30.108,-50.817,-59.072,4.697,3.778,68.153,
807764566749,807762566749,807.764566749,807.762566749,1768551567.6132622,-0.066,0.082,0.995,0.0,0.0,-0.183,-30.134,-50.856,-59.059,4.697,3.778,68.151,
807774791069,807772791069,807.774791069,807.772791069,1768551567.6234813,-0.066,0.082,0.995,0.0,0.0,-0.183,-30.134,-50.856,-59.059,4.697,3.778,68.15,
807785000513,807783000513,807.785000513,807.783000513,1768551567.6337202,-0.066,0.082,0.995,0.0,0.0,-0.183,-30.147,-50.856,-59.059,4.697,3.778,68.148,
807795399258,807793399258,807.795399258,807.793399258,1768551567.6441004,-0.066,0.082,0.995,0.0,0.0,-0.183,-30.134,-50.882,-59.02,4.697,3.778,68.146,
807805635537,807803635537,807.805635537,807.803635537,1768551567.6543458,-0.066,0.082,0.995,0.0,0.0,-0.183,-30.147,-50.856,-59.02,4.697,3.778,68.144,
807815821938,807813821938,807.815821938,807.813821938,1768551567.6645148,-0.066,0.082,0.995,0.0,0.0,-0.183,-30.134,-50.869,-58.981,4.697,3.778,68.142,
807826062591,807824062591,807.826062591,807.824062591,1768551567.674746,-0.066,0.082,0.995,0.0,0.0,-0.183,-30.147,-50.869,-58.981,4.696,3.778,68.14,
807836400959,807834400959,807.836400959,807.834400959,1768551567.6851184,-0.066,0.082,0.995,0.0,0.0,0.0,-30.147,-50.856,-58.981,4.696,3.778,68.138,
807846652405,807844652405,807.846652405,807.844652405,1768551567.6953487,-0.066,0.082,0.995,0.0,0.0,-0.183,-30.134,-50.83,-58.981,4.696,3.778,68.136,
807856834722,807854834722,807.856834722,807.854834722,1768551567.7055528,-0.066,0.082,0.995,0.0,0.0,-0.183,-30.134,-50.83,-58.981,4.696,3.778,68.134,
807867052917,807865052917,807.867052917,807.865052917,1768551567.7157698,-0.066,0.082,0.995,0.0,0.0,-0.122,-30.134,-50.817,-58.968,4.696,3.778,68.132,
807877367074,807875367074,807.877367074,807.875367074,1768551567.7260485,-0.066,0.082,0.995,0.0,0.0,-0.122,-30.134,-50.817,-58.994,4.696,3.778,68.13,
807887566601,807885566601,807.887566601,807.885566601,1768551567.736258,-0.066,0.082,0.995,0.0,0.0,-0.122,-30.121,-50.817,-59.111,4.696,3.778,68.128,
807897799505,807895799505,807.897799505,807.895799505,1768551567.7464406,-0.066,0.082,0.995,0.0,0.0,-0.122,-30.095,-50.83,-59.163,4.696,3.778,68.127,
807908107662,807906107662,807.908107662,807.906107662,1768551567.7568018,-0.066,0.082,0.995,0.0,0.0,-0.183,-30.108,-50.83,-59.098,4.696,3.778,68.125,
807918322648,807916322648,807.918322648,807.916322648,1768551567.7670171,-0.066,0.082,0.995,0.0,0.0,0.0,-30.134,-50.843,-59.072,4.696,3.778,68.123,
807928710018,807926710018,807.928710018,807.926710018,1768551567.7774136,-0.066,0.082,0.995,0.0,0.0,-0.183,-30.134,-50.856,-59.046,4.696,3.778,68.121,
807938909253,807936909253,807.938909253,807.936909253,1768551567.787619,-0.066,0.082,0.995,0.0,0.0,-0.183,-30.147,-50.856,-59.046,4.696,3.778,68.119,
807949133281,807947133281,807.949133281,807.947133281,1768551567.7978463,-0.066,0.082,0.995,0.0,0.0,-0.183,-30.147,-50.856,-59.033,4.696,3.777,68.117,
807959349725,807957349725,807.959349725,807.957349725,1768551567.8080513,-0.066,0.082,0.995,0.0,0.0,-0.183,-30.121,-50.856,-59.02,4.696,3.777,68.115,
807969575503,807967575503,807.969575503,807.967575503,1768551567.818278,-0.066,0.082,0.995,0.0,0.0,-0.183,-30.134,-50.843,-59.007,4.696,3.777,68.113,
807979964914,807977964914,807.979964914,807.977964914,1768551567.8286636,-0.066,0.082,0.995,0.0,0.0,-0.183,-30.147,-50.83,-59.02,4.696,3.777,68.111,
807990183109,807988183109,807.990183109,807.988183109,1768551567.8388786,-0.066,0.082,0.995,0.0,0.0,-0.183,-30.147,-50.83,-59.02,4.696,3.777,68.109,
808001158801,807999158801,808.001158801,807.999158801,1768551567.8495073,-0.066,0.082,0.995,0.0,0.0,-0.183,-30.16,-50.817,-59.033,4.696,3.777,68.107,
808013785411,808011785411,808.013785411,808.011785411,1768551567.8616219,-0.066,0.082,0.995,0.0,0.0,-0.183,-30.16,-50.817,-59.15,4.696,3.777,68.105,
808022836879,808020836879,808.022836879,808.020836879,1768551567.871519,-0.066,0.082,0.995,0.0,0.0,-0.183,-30.134,-50.817,-59.163,4.696,3.777,68.103,
808033069074,808031069074,808.033069074,808.031069074,1768551567.881786,-0.066,0.082,0.995,0.0,0.0,-0.183,-30.121,-50.817,-59.059,4.696,3.777,68.101,
808043338021,808041338021,808.043338021,808.041338021,1768551567.8920054,-0.066,0.082,0.995,0.0,0.0,0.0,-30.134,-50.843,-59.02,4.696,3.777,68.099,
808053602592,808051602592,808.053602592,808.051602592,1768551567.9023108,-0.066,0.082,0.995,0.0,0.0,-0.183,-30.16,-50.869,-59.007,4.696,3.777,68.097,
808063992587,808061992587,808.063992587,808.061992587,1768551567.912661,-0.066,0.082,0.995,0.0,0.0,-0.183,-30.16,-50.856,-58.994,4.696,3.777,68.095,
808074135819,808072135819,808.074135819,808.072135819,1768551567.9228306,-0.066,0.082,0.995,0.0,0.0,-0.183,-30.134,-50.882,-59.111,4.696,3.777,68.093,
808084477687,808082477687,808.084477687,808.082477687,1768551567.9331672,-0.066,0.082,0.995,0.0,0.0,-0.183,-30.108,-50.843,-59.15,4.696,3.777,68.091,
808094668755,808092668755,808.094668755,808.092668755,1768551567.9433835,-0.066,0.082,0.995,0.0,0.0,-0.183,-30.082,-50.843,-59.098,4.696,3.777,68.089,
808104875865,808102875865,808.104875865,808.102875865,1768551567.9535959,-0.066,0.082,0.995,0.0,0.0,-0.183,-30.121,-50.83,-59.046,4.696,3.777,68.087,
808115109227,808113109227,808.115109227,808.113109227,1768551567.963824,-0.066,0.082,0.995,0.0,0.0,-0.183,-30.134,-50.856,-59.02,4.696,3.777,68.085,
