MonoNS,EstNS,MonoS,EstS,AccX,AccY,AccZ,GyroX,GyroY,GyroZ,YawDeg,AngX,AngY,AngZ
799918085866,799916085866,799.918085866,799.916085866,-0.066,0.082,0.995,0.0,0.0,-0.122,,4.697,3.778,69.616
799928932343,799926932343,799.928932343,799.926932343,-0.066,0.082,0.995,0.0,0.0,-0.183,,4.697,3.778,69.614
799939282378,799937282378,799.939282378,799.937282378,-0.066,0.082,0.995,0.0,0.0,-0.183,,4.697,3.778,69.612
799949508447,799947508447,799.949508447,799.947508447,-0.066,0.082,0.995,0.0,0.0,-0.183,,4.697,3.778,69.61
799959653138,799957653138,799.959653138,799.957653138,-0.066,0.082,0.995,0.0,0.0,-0.183,,4.698,3.778,69.608
799969866082,799967866082,799.969866082,799.967866082,-0.066,0.082,0.995,0.0,0.0,-0.183,,4.698,3.777,69.606
799980065609,799978065609,799.980065609,799.978065609,-0.066,0.082,0.995,0.0,0.0,-0.183,,4.698,3.777,69.604
799990305679,799988305679,799.990305679,799.988305679,-0.066,0.082,0.995,0.0,0.0,-0.183,,4.698,3.777,69.602
800006496640,800004496640,800.00649664,800.00449664,-0.066,0.082,0.995,0.0,0.0,-0.183,,4.698,3.777,69.6
800017150899,800015150899,800.017150899,800.015150899,-0.066,0.082,0.995,0.0,0.0,-0.183,,4.698,3.777,69.599
800021601087,800019601087,800.021601087,800.019601087,-0.066,0.082,0.995,0.0,0.0,-0.183,,4.698,3.777,69.597
800033269523,800031269523,800.033269523,800.031269523,-0.066,0.082,0.995,0.0,0.0,-0.183,,4.698,3.777,69.594
800043516011,800041516011,800.043516011,800.041516011,-0.066,0.082,0.995,0.0,0.0,-0.183,,4.698,3.777,69.592
800053695995,800051695995,800.053695995,800.051695995,-0.066,0.082,0.995,0.0,0.0,0.0,,4.698,3.777,69.591
800063915647,800061915647,800.063915647,800.061915647,-0.066,0.082,0.995,0.0,0.0,-0.183,,4.698,3.777,69.588
800074127133,800072127133,800.074127133,800.072127133,-0.066,0.082,0.995,0.0,0.0,-0.183,,4.698,3.777,69.587
800084370120,800082370120,800.08437012,800.08237012,-0.066,0.082,0.995,0.0,0.0,-0.122,,4.698,3.777,69.585
800094705863,800092705863,800.094705863,800.092705863,-0.066,0.082,0.995,0.0,0.0,-0.122,,4.698,3.777,69.583
800104889930,800102889930,800.10488993,800.10288993,-0.066,0.082,0.995,0.0,0.0,-0.122,,4.698,3.777,69.581
800115139043,800113139043,800.115139043,800.113139043,-0.066,0.082,0.995,0.0,0.0,-0.122,,4.698,3.777,69.579
800125321069,800123321069,800.125321069,800.123321069,-0.066,0.082,0.995,0.0,0.0,-0.122,,4.698,3.777,69.578
800135705230,800133705230,800.13570523,800.13370523,-0.066,0.082,0.995,0.0,0.0,-0.122,,4.698,3.777,69.576
800145939467,800143939467,800.145939467,800.143939467,-0.066,0.082,0.995,0.0,0.0,-0.122,,4.698,3.777,69.574
800156046822,800154046822,800.156046822,800.154046822,-0.066,0.082,0.995,0.0,0.0,-0.122,,4.698,3.777,69.572
800166521405,800164521405,800.166521405,800.164521405,-0.066,0.082,0.995,0.0,0.0,-0.183,,4.698,3.777,69.57
800176754183,800174754183,800.176754183,800.174754183,-0.066,0.082,0.995,0.0,0.0,-0.183,,4.697,3.777,69.568
800186912874,800184912874,800.186912874,800.184912874,-0.066,0.082,0.995,0.0,0.0,-0.183,,4.697,3.777,69.566
800197241908,800195241908,800.197241908,800.195241908,-0.066,0.082,0.995,0.0,0.0,-0.122,,4.697,3.777,69.564
800207417517,800205417517,800.207417517,800.205417517,-0.066,0.082,0.995,0.0,0.0,-0.122,,4.697,3.777,69.563
800217737508,800215737508,800.217737508,800.215737508,-0.066,0.082,0.995,0.0,0.0,0.0,,4.697,3.777,69.561
800227988662,800225988662,800.227988662,800.225988662,-0.066,0.082,0.995,0.0,0.0,-0.183,,4.697,3.777,69.559
800238249151,800236249151,800.238249151,800.236249151,-0.066,0.082,0.995,0.0,0.0,-0.183,,4.697,3.777,69.557
800248249167,800246249167,800.248249167,800.246249167,-0.066,0.082,0.995,0.0,0.0,-0.183,,4.697,3.777,69.555
800258632162,800256632162,800.258632162,800.256632162,-0.066,0.082,0.995,0.0,0.0,-0.183,,4.697,3.777,69.553
800268903442,800266903442,800.268903442,800.266903442,-0.066,0.082,0.995,0.0,0.0,0.0,,4.697,3.777,69.551
800279021589,800277021589,800.279021589,800.277021589,-0.066,0.082,0.995,0.0,0.0,-0.183,,4.697,3.777,69.549
800290195333,800288195333,800.290195333,800.288195333,-0.066,0.082,0.995,0.0,0.0,-0.183,,4.697,3.777,69.547
800299945087,800297945087,800.299945087,800.297945087,-0.066,0.082,0.995,0.0,0.0,-0.122,,4.697,3.777,69.545
800310197700,800308197700,800.3101977,800.3081977,-0.066,0.082,0.995,0.0,0.0,-0.122,,4.697,3.777,69.543
800320350265,800318350265,800.320350265,800.318350265,-0.066,0.082,0.995,0.0,0.0,-0.183,,4.697,3.777,69.541
800330776721,800328776721,800.330776721,800.328776721,-0.066,0.082,0.995,0.0,0.0,0.0,,4.697,3.777,69.54
800340904202,800338904202,800.340904202,800.338904202,-0.066,0.082,0.995,0.0,0.0,-0.183,,4.697,3.777,69.537
800351130563,800349130563,800.351130563,800.349130563,-0.066,0.082,0.995,0.0,0.0,-0.183,,4.697,3.777,69.536
800361426928,800359426928,800.361426928,800.359426928,-0.066,0.082,0.995,0.0,0.0,-0.183,,4.697,3.777,69.534
800371818673,800369818673,800.371818673,800.369818673,-0.066,0.082,0.995,0.0,0.0,0.0,,4.697,3.777,69.532
800382013242,800380013242,800.382013242,800.380013242,-0.066,0.082,0.995,0.0,0.0,-0.183,,4.697,3.777,69.53
800392223561,800390223561,800.392223561,800.390223561,-0.066,0.082,0.995,0.0,0.0,-0.183,,4.697,3.777,69.528
800402435046,800400435046,800.402435046,800.400435046,-0.066,0.082,0.995,0.0,0.0,-0.183,,4.697,3.777,69.526
800412652949,800410652949,800.412652949,800.410652949,-0.066,0.082,0.995,0.0,0.0,-0.183,,4.697,3.777,69.524
800423037402,800421037402,800.423037402,800.421037402,-0.066,0.082,0.995,0.0,0.0,-0.183,,4.697,3.777,69.522
800433288848,800431288848,800.433288848,800.431288848,-0.066,0.082,0.995,0.0,0.0,-0.183,,4.697,3.777,69.52
800443479624,800441479624,800.443479624,800.441479624,-0.066,0.082,0.995,0.0,0.0,-0.183,,4.697,3.777,69.519
800453694318,800451694318,800.453694318,800.451694318,-0.066,0.082,0.995,0.0,0.0,0.0,,4.697,3.777,69.517
800463910179,800461910179,800.463910179,800.461910179,-0.066,0.082,0.995,0.0,0.0,-0.122,,4.697,3.777,69.515
800474172709,800472172709,800.474172709,800.472172709,-0.066,0.082,0.995,0.0,0.0,-0.122,,4.697,3.777,69.513
800484343943,800482343943,800.484343943,800.482343943,-0.066,0.082,0.995,0.0,0.0,-0.122,,4.697,3.777,69.511
800494562721,800492562721,800.494562721,800.492562721,-0.066,0.082,0.995,0.0,0.0,-0.122,,4.697,3.777,69.509
800504940465,800502940465,800.504940465,800.502940465,-0.066,0.082,0.995,0.0,0.0,-0.122,,4.697,3.777,69.507
800516597525,800514597525,800.516597525,800.514597525,-0.066,0.082,0.995,0.0,0.0,-0.122,,4.697,3.777,69.506
800525805334,800523805334,800.525805334,800.523805334,-0.066,0.082,0.995,0.0,0.0,0.0,,4.697,3.777,69.504
800536019528,800534019528,800.536019528,800.534019528,-0.066,0.082,0.995,0.0,0.0,-0.183,,4.697,3.777,69.502
800546196179,800544196179,800.546196179,800.544196179,-0.066,0.082,0.995,0.0,0.0,-0.183,,4.697,3.777,69.5
800556452292,800554452292,800.556452292,800.554452292,-0.066,0.082,0.995,0.0,0.0,-0.183,,4.697,3.777,69.498
800566603691,800564603691,800.566603691,800.564603691,-0.066,0.082,0.995,0.0,0.0,-0.183,,4.697,3.777,69.496
800576805260,800574805260,800.57680526,800.57480526,-0.066,0.082,0.995,0.0,0.0,-0.183,,4.697,3.777,69.494
800586985535,800584985535,800.586985535,800.584985535,-0.066,0.082,0.995,0.0,0.0,-0.183,,4.697,3.777,69.492
800597599542,800595599542,800.597599542,800.595599542,-0.066,0.082,0.995,0.0,0.0,-0.183,,4.697,3.777,69.49
800607583807,800605583807,800.607583807,800.605583807,-0.066,0.082,0.995,0.0,0.0,-0.183,,4.697,3.777,69.488
800617874339,800615874339,800.617874339,800.615874339,-0.066,0.082,0.995,0.0,0.0,-0.183,,4.697,3.777,69.486
800628078824,800626078824,800.628078824,800.626078824,-0.066,0.082,0.995,0.0,0.0,-0.183,,4.697,3.777,69.484
800638317728,800636317728,800.638317728,800.636317728,-0.066,0.082,0.995,0.0,0.0,-0.122,,4.697,3.777,69.483
800648525422,800646525422,800.648525422,800.646525422,-0.066,0.082,0.995,0.0,0.0,-0.122,,4.697,3.777,69.481
800658900249,800656900249,800.658900249,800.656900249,-0.066,0.082,0.995,0.0,0.0,-0.183,,4.697,3.777,69.479
800669220532,800667220532,800.669220532,800.667220532,-0.066,0.082,0.995,0.0,0.0,-0.183,,4.697,3.777,69.477
800679396141,800677396141,800.679396141,800.677396141,-0.066,0.082,0.995,0.0,0.0,-0.183,,4.697,3.777,69.475
800689578459,800687578459,800.689578459,800.687578459,-0.066,0.082,0.995,0.0,0.0,-0.183,,4.697,3.777,69.473
800699830196,800697830196,800.699830196,800.697830196,-0.066,0.082,0.995,0.0,0.0,-0.183,,4.697,3.777,69.471
800710027390,800708027390,800.71002739,800.70802739,-0.066,0.082,0.995,0.0,0.0,-0.183,,4.697,3.777,69.469
800720416218,800718416218,800.720416218,800.718416218,-0.066,0.082,0.995,0.0,0.0,-0.183,,4.697,3.777,69.467
800730630620,800728630620,800.73063062,800.72863062,-0.066,0.082,0.995,0.0,0.0,-0.183,,4.697,3.777,69.466
800740852607,800738852607,800.740852607,800.738852607,-0.066,0.082,0.995,0.0,0.0,-0.183,,4.697,3.777,69.463
800751173473,800749173473,800.751173473,800.749173473,-0.066,0.082,0.995,0.0,0.0,-0.183,,4.697,3.777,69.462
800761277620,800759277620,800.76127762,800.75927762,-0.066,0.082,0.995,0.0,0.0,-0.183,,4.697,3.777,69.46
800771673740,800769673740,800.77167374,800.76967374,-0.066,0.082,0.995,0.0,0.0,-0.183,,4.698,3.777,69.458
800781886976,800779886976,800.781886976,800.779886976,-0.066,0.082,0.995,0.0,0.0,-0.122,,4.698,3.777,69.456
800792107212,800790107212,800.792107212,800.790107212,-0.066,0.082,0.995,0.0,0.0,-0.122,,4.698,3.777,69.454
800802496623,800800496623,800.802496623,800.800496623,-0.066,0.082,0.995,0.0,0.0,-0.183,,4.698,3.777,69.452
800812711609,800810711609,800.812711609,800.810711609,-0.066,0.082,0.995,0.0,0.0,-0.183,,4.698,3.777,69.45
800822972972,800820972972,800.822972972,800.820972972,-0.066,0.082,0.995,0.0,0.0,-0.183,,4.698,3.777,69.448
800833245711,800831245711,800.833245711,800.831245711,-0.066,0.082,0.995,0.0,0.0,-0.183,,4.698,3.777,69.446
800843372318,800841372318,800.843372318,800.841372318,-0.066,0.082,0.995,0.0,0.0,-0.183,,4.698,3.777,69.444
800853755604,800851755604,800.853755604,800.851755604,-0.066,0.082,0.995,0.0,0.0,-0.183,,4.698,3.777,69.443
800863992757,800861992757,800.863992757,800.861992757,-0.066,0.082,0.995,0.0,0.0,-0.183,,4.698,3.777,69.44
800874217661,800872217661,800.874217661,800.872217661,-0.066,0.082,0.995,0.0,0.0,-0.183,,4.698,3.777,69.439
800884406978,800882406978,800.884406978,800.882406978,-0.066,0.082,0.995,0.0,0.0,-0.183,,4.698,3.777,69.437
800894627506,800892627506,800.894627506,800.892627506,-0.066,0.082,0.995,0.0,0.0,-0.183,,4.698,3.777,69.435
800904852409,800902852409,800.904852409,800.902852409,-0.066,0.082,0.995,0.0,0.0,-0.183,,4.698,3.777,69.433
800915081104,800913081104,800.915081104,800.913081104,-0.066,0.082,0.995,0.0,0.0,-0.183,,4.698,3.777,69.431
800925464974,800923464974,800.925464974,800.923464974,-0.066,0.082,0.995,0.0,0.0,-0.183,,4.698,3.777,69.429
800935674126,800933674126,800.935674126,800.933674126,-0.066,0.082,0.995,0.0,0.0,-0.183,,4.698,3.777,69.427
800946062663,800944062663,800.946062663,800.944062663,-0.066,0.082,0.995,0.0,0.0,-0.183,-0.00027870238304138304,4.698,3.777,69.425
800956214645,800954214645,800.956214645,800.954214645,-0.066,0.082,0.995,0.0,0.0,-0.183,-0.0005530213451385522,4.698,3.777,69.423
800966474550,800964474550,800.96647455,800.96447455,-0.066,0.082,0.995,0.0,0.0,-0.122,-0.0006538974893649254,4.698,3.777,69.421
800976621574,800974621574,800.976621574,800.974621574,-0.066,0.082,0.995,0.0,0.0,-0.122,-0.0006297912887155654,4.698,3.777,69.419
800987005735,800985005735,800.987005735,800.985005735,-0.066,0.082,0.995,0.0,0.0,-0.122,-0.0005120358608096668,4.698,3.777,69.417
800997223638,800995223638,800.997223638,800.995223638,-0.066,0.082,0.995,0.0,0.0,-0.183,-0.0005047255239233008,4.698,3.777,69.416
801007425206,801005425206,801.007425206,801.005425206,-0.066,0.082,0.995,0.0,0.0,-0.183,-0.0005756749111406092,4.698,3.777,69.414
801017815493,801015815493,801.017815493,801.015815493,-0.066,0.082,0.995,0.0,0.0,-0.183,-0.0007060315791502595,4.698,3.777,69.412
801028028437,801026028437,801.028028437,801.026028437,-0.066,0.082,0.995,0.0,0.0,-0.122,-0.0007015203184574342,4.697,3.777,69.41
801038280175,801036280175,801.038280175,801.036280175,-0.066,0.082,0.995,0.0,0.0,-0.122,-0.0006006726217832455,4.697,3.777,69.408
801048650919,801046650919,801.048650919,801.046650919,-0.066,0.082,0.995,0.0,0.0,-0.122,-0.00042765656984170274,4.697,3.777,69.406
801058849279,801056849279,801.058849279,801.056849279,-0.066,0.082,0.995,0.0,0.0,0.0,0.00013707289983382127,4.697,3.777,69.404
801069120851,801067120851,801.069120851,801.067120851,-0.066,0.082,0.995,0.0,0.0,-0.183,0.00046948055326684525,4.697,3.777,69.402
801079291501,801077291501,801.079291501,801.077291501,-0.066,0.082,0.995,0.0,0.0,-0.183,0.0006331717339090742,4.697,3.777,69.4
801089675079,801087675079,801.089675079,801.087675079,-0.066,0.082,0.995,0.0,0.0,-0.183,0.0006742517412317681,4.697,3.777,69.399
801099863230,801097863230,801.09986323,801.09786323,-0.066,0.082,0.995,0.0,0.0,-0.183,0.0006275251288927848,4.697,3.777,69.397
801110117885,801108117885,801.110117885,801.108117885,-0.066,0.082,0.995,0.0,0.0,-0.122,0.0006912194599825629,4.697,3.777,69.395
801120360872,801118360872,801.120360872,801.118360872,-0.066,0.082,0.995,0.0,0.0,-0.183,0.0006607183612319409,4.697,3.777,69.393
801130552232,801128552232,801.130552232,801.128552232,-0.066,0.082,0.995,0.0,0.0,-0.183,0.0005625490627955584,4.697,3.777,69.391
801140972270,801138972270,801.14097227,801.13897227,-0.066,0.082,0.995,0.0,0.0,0.0,0.0009483737774421072,4.697,3.777,69.389
801151313762,801149313762,801.151313762,801.149313762,-0.066,0.082,0.995,0.0,0.0,-0.183,0.001145945549667234,4.697,3.777,69.387
801161760177,801159760177,801.161760177,801.159760177,-0.066,0.082,0.995,0.0,0.0,-0.183,0.001211155722830113,4.697,3.777,69.385
801177967930,801175967930,801.17796793,801.17596793,-0.066,0.082,0.995,0.0,0.0,-0.183,0.00117741568449739,4.697,3.777,69.383
801182428036,801180428036,801.182428036,801.180428036,-0.066,0.082,0.995,0.0,0.0,-0.183,0.0010774059859578018,4.697,3.777,69.381
801193169049,801191169049,801.193169049,801.191169049,-0.066,0.082,0.995,0.0,0.0,-0.183,0.0009199954821628873,4.697,3.777,69.379
801203526959,801201526959,801.203526959,801.201526959,-0.066,0.082,0.995,0.0,0.0,-0.183,0.0007327885221051797,4.697,3.777,69.377
801213703734,801211703734,801.213703734,801.211703734,-0.066,0.082,0.995,0.0,0.0,-0.183,0.0005230064818233462,4.697,3.777,69.375
801223995724,801221995724,801.223995724,801.221995724,-0.066,0.082,0.995,0.0,0.0,-0.183,0.00029573533516336385,4.697,3.777,69.373
801234484891,801232484891,801.234484891,801.232484891,-0.066,0.082,0.995,0.0,0.0,-0.183,4.771304917169448e-05,4.697,3.777,69.371
801244726128,801242726128,801.244726128,801.242726128,-0.066,0.082,0.995,0.0,0.0,-0.183,-0.00020261497423342182,4.697,3.777,69.369
801254841942,801252841942,801.254841942,801.252841942,-0.066,0.082,0.995,0.0,0.0,0.0,5.590580716541272e-05,4.697,3.777,69.367
801265035052,801263035052,801.265035052,801.263035052,-0.066,0.082,0.995,0.0,0.0,-0.122,0.0003408058033944416,4.697,3.777,69.365
801275262288,801273262288,801.275262288,801.273262288,-0.066,0.082,0.995,0.0,0.0,-0.183,0.0004703350519479771,4.697,3.777,69.364
801285519276,801283519276,801.285519276,801.283519276,-0.066,0.082,0.995,0.0,0.0,-0.183,0.0004874429094559294,4.697,3.777,69.362
801295696052,801293696052,801.295696052,801.293696052,-0.066,0.082,0.995,0.0,0.0,-0.183,0.00042365850165090413,4.697,3.777,69.36
801305867577,801303867577,801.305867577,801.303867577,-0.066,0.082,0.995,0.0,0.0,-0.183,0.00030211331850365147,4.697,3.777,69.358
801316144691,801314144691,801.316144691,801.314144691,-0.066,0.082,0.995,0.0,0.0,-0.183,0.0001367664252318204,4.697,3.777,69.356
801326383595,801324383595,801.326383595,801.324383595,-0.066,0.082,0.995,0.0,0.0,-0.183,-5.82777628749993e-05,4.697,3.777,69.354
801336788466,801334788466,801.336788466,801.334788466,-0.066,0.082,0.995,0.0,0.0,-0.183,-0.00027999385769148747,4.697,3.777,69.352
801346918864,801344918864,801.346918864,801.344918864,-0.066,0.082,0.995,0.0,0.0,-0.183,-0.0005114174190982792,4.697,3.777,69.35
801357170893,801355170893,801.357170893,801.355170893,-0.066,0.082,0.995,0.0,0.0,-0.183,-0.0007569565414531611,4.697,3.777,69.348
801367386754,801365386754,801.367386754,801.365386754,-0.066,0.082,0.995,0.0,0.0,-0.183,-0.001009799521608884,4.697,3.777,69.346
801377623908,801375623908,801.377623908,801.375623908,-0.066,0.082,0.995,0.0,0.0,-0.183,-0.001269030957363384,4.697,3.777,69.344
801388220997,801386220997,801.388220997,801.386220997,-0.066,0.082,0.995,0.0,0.0,-0.122,-0.0013582835140689168,4.697,3.777,69.342
801398758583,801396758583,801.398758583,801.396758583,-0.066,0.082,0.995,0.0,0.0,-0.122,-0.0013195382092859576,4.697,3.777,69.34
801409459219,801407459219,801.409459219,801.407459219,-0.066,0.082,0.995,0.0,0.0,-0.183,-0.0013755114845217312,4.697,3.777,69.338
801420015764,801418015764,801.420015764,801.418015764,-0.066,0.082,0.995,0.0,0.0,-0.183,-0.0014953974932975377,4.697,3.777,69.336
801430264877,801428264877,801.430264877,801.428264877,-0.066,0.082,0.995,0.0,0.0,-0.183,-0.0016561195453318094,4.697,3.777,69.334
801440422693,801438422693,801.440422693,801.438422693,-0.066,0.082,0.995,0.0,0.0,-0.183,-0.0018467144854369811,4.697,3.777,69.332
801450635929,801448635929,801.450635929,801.448635929,-0.066,0.082,0.995,0.0,0.0,-0.183,-0.002061336478730379,4.697,3.777,69.33
801460852956,801458852956,801.460852956,801.458852956,-0.066,0.082,0.995,0.0,0.0,0.0,-0.0017728110048185733,4.697,3.777,69.328
801471074651,801469074651,801.471074651,801.469074651,-0.066,0.082,0.995,0.0,0.0,-0.183,-0.0016407124553921109,4.697,3.777,69.326
801481331347,801479331347,801.481331347,801.479331347,-0.066,0.082,0.995,0.0,0.0,-0.122,-0.0014478582735073264,4.697,3.777,69.324
801491613045,801489613045,801.491613045,801.489613045,-0.066,0.082,0.995,0.0,0.0,-0.183,-0.001385217407259434,4.697,3.777,69.322
801502044458,801500044458,801.502044458,801.500044458,-0.066,0.082,0.995,0.0,0.0,0.0,-0.0008844853582104457,4.697,3.777,69.321
801512138021,801510138021,801.512138021,801.510138021,-0.066,0.082,0.995,0.0,0.0,-0.183,-0.0006045761527622459,4.697,3.777,69.319
801522356799,801520356799,801.522356799,801.520356799,-0.066,0.082,0.995,0.0,0.0,-0.183,-0.00047877226886996723,4.697,3.777,69.317
801532545242,801530545242,801.532545242,801.530545242,-0.066,0.082,0.995,0.0,0.0,-0.183,-0.00046401813153713927,4.697,3.777,69.315
801542770145,801540770145,801.542770145,801.540770145,-0.066,0.082,0.995,0.0,0.0,0.0,-9.39147181353815e-06,4.697,3.777,69.313
801553150223,801551150223,801.553150223,801.551150223,-0.066,0.082,0.995,0.0,0.0,-0.183,0.00024414346504866857,4.697,3.777,69.311
801564368302,801562368302,801.564368302,801.562368302,-0.066,0.082,0.995,0.0,0.0,-0.183,0.00034786724570548154,4.697,3.777,69.309
801573897252,801571897252,801.573897252,801.571897252,-0.066,0.082,0.995,0.0,0.0,-0.183,0.0003451204693404379,4.697,3.777,69.307
801583661882,801581661882,801.583661882,801.581661882,-0.066,0.082,0.995,0.0,0.0,-0.183,0.00027139099409986627,4.697,3.777,69.305
801593847408,801591847408,801.593847408,801.591847408,-0.066,0.082,0.995,0.0,0.0,-0.183,0.0001403301501639928,4.697,3.777,69.303
801604275321,801602275321,801.604275321,801.602275321,-0.066,0.082,0.995,0.0,0.0,-0.183,-3.479632081913379e-05,4.697,3.777,69.301
801614467556,801612467556,801.614467556,801.612467556,-0.066,0.082,0.995,0.0,0.0,-0.183,-0.00023444131954543276,4.697,3.777,69.299
801624551285,801622551285,801.624551285,801.622551285,-0.066,0.082,0.995,0.0,0.0,-0.183,-0.00045125729674613303,4.697,3.777,69.297
801636726664,801634726664,801.636726664,801.634726664,-0.066,0.082,0.995,0.0,0.0,-0.183,-0.0007087908620980188,4.697,3.777,69.295
801650050685,801648050685,801.650050685,801.648050685,-0.066,0.082,0.995,0.0,0.0,-0.183,-0.0009529772946726366,4.697,3.777,69.293
801655833859,801653833859,801.655833859,801.653833859,-0.066,0.082,0.995,0.0,0.0,0.0,-0.0006963186361744867,4.697,3.777,69.291
801666332651,801664332651,801.666332651,801.664332651,-0.066,0.082,0.995,0.0,0.0,-0.183,-0.000584608604077984,4.697,3.777,69.289
801676483759,801674483759,801.676483759,801.674483759,-0.066,0.082,0.995,0.0,0.0,-0.183,-0.0005819262196646045,4.697,3.777,69.287
801686740455,801684740455,801.686740455,801.684740455,-0.066,0.082,0.995,0.0,0.0,-0.122,-0.0004835814295673171,4.697,3.777,69.286
801696965066,801694965066,801.696965066,801.694965066,-0.066,0.082,0.995,0.0,0.0,0.0,3.735746452969546e-05,4.697,3.777,69.284
801707198428,801705198428,801.707198428,801.705198428,-0.066,0.082,0.995,0.0,0.0,-0.183,0.0003347378071317098,4.697,3.777,69.282
801717412831,801715412831,801.717412831,801.715412831,-0.066,0.082,0.995,0.0,0.0,-0.183,0.00047269006346169424,4.697,3.777,69.28
801727857953,801725857953,801.727857953,801.725857953,-0.066,0.082,0.995,0.0,0.0,-0.183,0.0004952092309712794,4.697,3.777,69.278
801738036187,801736036187,801.738036187,801.736036187,-0.066,0.082,0.995,0.0,0.0,-0.183,0.00043617966243526064,4.697,3.777,69.276
801748083748,801746083748,801.748083748,801.746083748,-0.066,0.082,0.995,0.0,0.0,-0.122,0.0004894007914745505,4.697,3.777,69.274
801758519829,801756519829,801.758519829,801.756519829,-0.066,0.082,0.995,0.0,0.0,-0.122,0.0006299888767197873,4.697,3.777,69.272
801768737731,801766737731,801.768737731,801.766737731,-0.066,0.082,0.995,0.0,0.0,-0.183,0.0006528470169164169,4.696,3.777,69.27
801778940466,801776940466,801.778940466,801.776940466,-0.066,0.082,0.995,0.0,0.0,-0.183,0.0005930903699709536,4.696,3.777,69.268
801789160119,801787160119,801.789160119,801.787160119,-0.066,0.082,0.995,0.0,0.0,-0.183,0.00047366330724593023,4.696,3.777,69.266
801799381230,801797381230,801.79938123,801.79738123,-0.066,0.082,0.995,0.0,0.0,-0.183,0.0003109683326469628,4.696,3.777,69.264
801809979194,801807979194,801.809979194,801.807979194,-0.066,0.082,0.995,0.0,0.0,-0.183,0.00011239305591269551,4.696,3.777,69.263
801820169679,801818169679,801.820169679,801.818169679,-0.066,0.082,0.995,0.0,0.0,-0.183,-0.00010743076229470228,4.696,3.777,69.26
801831319213,801829319213,801.831319213,801.829319213,-0.066,0.082,0.995,0.0,0.0,-0.183,-0.0003614728052139761,4.696,3.777,69.258
801841318646,801839318646,801.841318646,801.839318646,-0.066,0.082,0.995,0.0,0.0,-0.122,-0.0004340000647871213,4.696,3.777,69.257
801851760852,801849760852,801.851760852,801.849760852,-0.066,0.082,0.995,0.0,0.0,-0.122,-0.0003880732375335,4.697,3.777,69.255
801861778078,801859778078,801.861778078,801.859778078,-0.066,0.082,0.995,0.0,0.0,-0.122,-0.0002620743760056951,4.697,3.777,69.253
801871965646,801869965646,801.871965646,801.869965646,-0.066,0.082,0.995,0.0,0.0,-0.122,-7.231060204954327e-05,4.697,3.777,69.251
801882199882,801880199882,801.882199882,801.880199882,-0.066,0.082,0.995,0.0,0.0,-0.122,0.00016216315329203252,4.697,3.777,69.249
801892608253,801890608253,801.892608253,801.890608253,-0.066,0.082,0.995,0.0,0.0,-0.122,0.00043310720339752426,4.697,3.777,69.247
801902796113,801900796113,801.902796113,801.900796113,-0.066,0.082,0.995,0.0,0.0,-0.122,0.0007222665417906233,4.697,3.777,69.246
801913002348,801911002348,801.913002348,801.911002348,-0.066,0.082,0.995,0.0,0.0,-0.122,0.0010280786221978932,4.697,3.777,69.244
801923325840,801921325840,801.92332584,801.92132584,-0.066,0.082,0.995,0.0,0.0,-0.122,0.001347901323116817,4.697,3.777,69.242
801933660707,801931660707,801.933660707,801.931660707,-0.066,0.082,0.995,0.0,0.0,-0.183,0.0015016837648043242,4.697,3.777,69.24
801943896402,801941896402,801.943896402,801.941896402,-0.066,0.082,0.995,0.0,0.0,0.0,0.0020528695770112826,4.697,3.777,69.238
801954069969,801952069969,801.954069969,801.952069969,-0.066,0.082,0.995,0.0,0.0,-0.183,0.0023755873655218252,4.697,3.777,69.236
801964461131,801962461131,801.964461131,801.962461131,-0.066,0.082,0.995,0.0,0.0,-0.183,0.0025327023401456096,4.697,3.777,69.234
801974691576,801972691576,801.974691576,801.972691576,-0.066,0.082,0.995,0.0,0.0,-0.183,0.0025680306423006816,4.697,3.777,69.232
801984909478,801982909478,801.984909478,801.982909478,-0.066,0.082,0.995,0.0,0.0,0.0,0.0030379118170055478,4.697,3.777,69.23
801995106380,801993106380,801.99510638,801.99310638,-0.066,0.082,0.995,0.0,0.0,-0.183,0.0033004625610849572,4.697,3.777,69.228
802005500458,802003500458,802.005500458,802.003500458,-0.066,0.082,0.995,0.0,0.0,-0.183,0.003414012189695777,4.697,3.777,69.226
802015727403,802013727403,802.015727403,802.013727403,-0.066,0.082,0.995,0.0,0.0,-0.183,0.0034183561117028874,4.697,3.777,69.224
802026120023,802024120023,802.026120023,802.024120023,-0.066,0.082,0.995,0.0,0.0,-0.183,0.0033431246683734883,4.697,3.777,69.222
802036344051,802034344051,802.036344051,802.034344051,-0.066,0.082,0.995,0.0,0.0,-0.183,0.003213089679125915,4.697,3.777,69.22
802046526952,802044526952,802.046526952,802.044526952,-0.066,0.082,0.995,0.0,0.0,-0.183,0.0030435665150236237,4.697,3.777,69.219
802056739021,802054739021,802.056739021,802.054739021,-0.066,0.082,0.995,0.0,0.0,-0.183,0.0028446773512134445,4.697,3.777,69.217
802067131058,802065131058,802.067131058,802.065131058,-0.066,0.082,0.995,0.0,0.0,-0.122,0.002799258564425206,4.697,3.777,69.215
802083890507,802081890507,802.083890507,802.081890507,-0.066,0.082,0.995,0.0,0.0,-0.122,0.0028727383712529907,4.697,3.777,69.213
802088740299,802086740299,802.088740299,802.086740299,-0.066,0.082,0.995,0.0,0.0,-0.122,0.0030290197631901764,4.697,3.777,69.211
802100703333,802098703333,802.100703333,802.098703333,-0.066,0.082,0.995,0.0,0.0,-0.122,0.00327954348767118,4.697,3.777,69.209
802110915986,802108915986,802.110915986,802.108915986,-0.066,0.082,0.995,0.0,0.0,0.0,0.003872117052534044,4.697,3.777,69.207
802121154014,802119154014,802.121154014,802.119154014,-0.066,0.082,0.995,0.0,0.0,-0.122,0.004400905674927097,4.697,3.777,69.205
802131355583,802129355583,802.131355583,802.129355583,-0.066,0.082,0.995,0.0,0.0,-0.122,0.004877899736623788,4.697,3.777,69.203
802141580486,802139580486,802.141580486,802.139580486,-0.066,0.082,0.995,0.0,0.0,-0.183,0.005146460288057388,4.697,3.777,69.201
802151794013,802149794013,802.151794013,802.149794013,-0.066,0.082,0.995,0.0,0.0,-0.183,0.005263682941794714,4.697,3.777,69.199
802162019792,802160019792,802.162019792,802.160019792,-0.066,0.082,0.995,0.0,0.0,0.0,0.00579262820439703,4.697,3.777,69.198
802172254028,802170254028,802.172254028,802.170254028,-0.066,0.082,0.995,0.0,0.0,-0.183,0.006098045579873144,4.697,3.777,69.195
802182443346,802180443346,802.182443346,802.180443346,-0.066,0.082,0.995,0.0,0.0,-0.183,0.006242199116554323,4.697,3.777,69.194
802192662999,802190662999,802.192662999,802.190662999,-0.066,0.082,0.995,0.0,0.0,-0.183,0.006270033108677982,4.697,3.777,69.192
802202870693,802200870693,802.202870693,802.200870693,-0.066,0.082,0.995,0.0,0.0,0.0,0.006733402896378709,4.697,3.777,69.19
802213062344,802211062344,802.213062344,802.211062344,-0.066,0.082,0.995,0.0,0.0,-0.183,0.0069914853094742,4.697,3.777,69.188
802223312915,802221312915,802.223312915,802.221312915,-0.066,0.082,0.995,0.0,0.0,-0.183,0.007102141763774165,4.697,3.777,69.186
802233547735,802231547735,802.233547735,802.231547735,-0.066,0.082,0.995,0.0,0.0,-0.183,0.0071057196031817675,4.697,3.777,69.184
802243697968,802241697968,802.243697968,802.241697968,-0.066,0.082,0.995,0.0,0.0,-0.183,0.0070321414790323255,4.697,3.777,69.182
802254480275,802252480275,802.254480275,802.252480275,-0.066,0.082,0.995,0.0,0.0,-0.183,0.006895698728442245,4.697,3.777,69.18
802264870853,802262870853,802.264870853,802.262870853,-0.066,0.082,0.995,0.0,0.0,-0.122,0.006900021819279736,4.697,3.777,69.178
802274705778,802272705778,802.274705778,802.272705778,-0.066,0.082,0.995,0.0,0.0,-0.122,0.006995843834305595,4.697,3.777,69.176
802284940890,802282940890,802.28494089,802.28294089,-0.066,0.082,0.995,0.0,0.0,-0.122,0.0071642333399147265,4.697,3.777,69.175
802295136624,802293136624,802.295136624,802.293136624,-0.066,0.082,0.995,0.0,0.0,-0.122,0.007382182791338688,4.697,3.777,69.173
802305347527,802303347527,802.305347527,802.303347527,-0.066,0.082,0.995,0.0,0.0,-0.122,0.007636781530000205,4.697,3.777,69.171
802315577972,802313577972,802.315577972,802.313577972,-0.066,0.082,0.995,0.0,0.0,-0.122,0.007918017868399877,4.697,3.777,69.169
802325795874,802323795874,802.325795874,802.323795874,-0.066,0.082,0.995,0.0,0.0,-0.122,0.008217819148109153,4.697,3.777,69.167
802336007360,802334007360,802.33600736,802.33400736,-0.066,0.082,0.995,0.0,0.0,-0.122,0.008531359546965787,4.697,3.777,69.165
802346179760,802344179760,802.34617976,802.34417976,-0.066,0.082,0.995,0.0,0.0,-0.183,0.008681297818852112,4.697,3.777,69.163
802356627217,802354627217,802.356627217,802.354627217,-0.066,0.082,0.995,0.0,0.0,-0.183,0.00871265113501766,4.697,3.777,69.162
802366834035,802364834035,802.366834035,802.364834035,-0.066,0.082,0.995,0.0,0.0,-0.183,0.008658525602057812,4.697,3.777,69.16
802377060689,802375060689,802.377060689,802.375060689,-0.066,0.082,0.995,0.0,0.0,-0.183,0.00854305746087446,4.697,3.777,69.158
802387319718,802385319718,802.387319718,802.385319718,-0.066,0.082,0.995,0.0,0.0,-0.183,0.00838279607297324,4.697,3.777,69.156
802397506994,802395506994,802.397506994,802.395506994,-0.066,0.082,0.995,0.0,0.0,-0.183,0.008191899716963961,4.697,3.777,69.154
802407831653,802405831653,802.407831653,802.405831653,-0.066,0.082,0.995,0.0,0.0,-0.183,0.007975078554633246,4.697,3.777,69.152
802417949509,802415949509,802.417949509,802.415949509,-0.066,0.082,0.995,0.0,0.0,-0.183,0.0077465248909195615,4.697,3.777,69.15
802428206497,802426206497,802.428206497,802.426206497,-0.066,0.082,0.995,0.0,0.0,-0.183,0.007502332037965948,4.697,3.777,69.148
802438407773,802436407773,802.438407773,802.436407773,-0.066,0.082,0.995,0.0,0.0,-0.122,0.0074238614793777176,4.697,3.777,69.146
802448620134,802446620134,802.448620134,802.446620134,-0.066,0.082,0.995,0.0,0.0,-0.122,0.007464238994193431,4.697,3.777,69.144
802458881206,802456881206,802.458881206,802.456881206,-0.066,0.082,0.995,0.0,0.0,-0.122,0.007590710976325908,4.697,3.777,69.142
802469063232,802467063232,802.469063232,802.467063232,-0.066,0.082,0.995,0.0,0.0,-0.122,0.0077786003060483725,4.697,3.777,69.141
802479328387,802477328387,802.479328387,802.477328387,-0.066,0.082,0.995,0.0,0.0,-0.122,0.008012048839733943,4.697,3.777,69.139
802489540164,802487540164,802.489540164,802.487540164,-0.066,0.082,0.995,0.0,0.0,-0.122,0.008276991597355125,4.697,3.777,69.137
802499735024,802497735024,802.499735024,802.497735024,-0.066,0.082,0.995,0.0,0.0,-0.122,0.008565897643867185,4.697,3.777,69.135
802509963427,802507963427,802.509963427,802.507963427,-0.066,0.082,0.995,0.0,0.0,0.0,0.009217248947680728,4.697,3.777,69.133
802520534265,802518534265,802.520534265,802.518534265,-0.066,0.082,0.995,0.0,0.0,-0.183,0.009616755307436862,4.697,3.777,69.131
802531897601,802529897601,802.531897601,802.529897601,-0.066,0.082,0.995,0.0,0.0,-0.122,0.010035666933248758,4.697,3.776,69.129
802541635396,802539635396,802.541635396,802.539635396,-0.066,0.082,0.995,0.0,0.0,-0.122,0.010392280361187271,4.697,3.776,69.127
802551831714,802549831714,802.551831714,802.549831714,-0.066,0.082,0.995,0.0,0.0,-0.122,0.010756178341303034,4.697,3.776,69.125
802562065659,802560065659,802.562065659,802.560065659,-0.066,0.082,0.995,0.0,0.0,-0.122,0.011115966967553716,4.697,3.776,69.123
802572269561,802570269561,802.572269561,802.570269561,-0.066,0.082,0.995,0.0,0.0,-0.122,0.011471585165854593,4.697,3.776,69.122
802582444879,802580444879,802.582444879,802.580444879,-0.066,0.082,0.995,0.0,0.0,-0.183,0.011652916926179271,4.697,3.776,69.12
802592872792,802590872792,802.592872792,802.590872792,-0.066,0.082,0.995,0.0,0.0,-0.183,0.011706827589353794,4.697,3.776,69.118
802603115779,802601115779,802.603115779,802.601115779,-0.066,0.082,0.995,0.0,0.0,-0.183,0.011668760598112202,4.697,3.776,69.116
802613336016,802611336016,802.613336016,802.611336016,-0.066,0.082,0.995,0.0,0.0,-0.183,0.011565169402916802,4.697,3.776,69.114
802623892852,802621892852,802.623892852,802.621892852,-0.066,0.082,0.995,0.0,0.0,-0.183,0.01140910185025271,4.697,3.776,69.112
802634018584,802632018584,802.634018584,802.632018584,-0.066,0.082,0.995,0.0,0.0,-0.122,0.011395954898984127,4.697,3.776,69.11
802643947138,802641947138,802.643947138,802.641947138,-0.066,0.082,0.995,0.0,0.0,0.0,0.011814233952308961,4.697,3.776,69.108
802654361634,802652361634,802.654361634,802.652361634,-0.066,0.082,0.995,0.0,0.0,-0.122,0.012227553708619762,4.697,3.776,69.107
802664398986,802662398986,802.664398986,802.662398986,-0.066,0.082,0.995,0.0,0.0,-0.122,0.01260968264531149,4.697,3.776,69.105
802674620097,802672620097,802.674620097,802.672620097,-0.066,0.082,0.995,0.0,0.0,-0.122,0.01298896786324836,4.697,3.776,69.103
802684993758,802682993758,802.684993758,802.682993758,-0.066,0.082,0.995,0.0,0.0,0.0,0.013720083135065776,4.697,3.776,69.101
802696093998,802694093998,802.696093998,802.694093998,-0.066,0.082,0.995,0.0,0.0,-0.122,0.014377913802259704,4.697,3.776,69.099
802706381904,802704381904,802.706381904,802.704381904,-0.066,0.082,0.995,0.0,0.0,-0.122,0.014915380407440624,4.697,3.776,69.097
802716003901,802714003901,802.716003901,802.714003901,-0.066,0.082,0.995,0.0,0.0,-0.183,0.015222195581184532,4.697,3.776,69.095
802748379115,802746379115,802.748379115,802.746379115,-0.066,0.082,0.995,0.0,0.0,-0.183,0.015206638170021089,4.697,3.776,69.089
802758018321,802756018321,802.758018321,802.756018321,-0.066,0.082,0.995,0.0,0.0,-0.183,0.015128294660811267,4.697,3.776,69.088
802768067340,802766067340,802.76806734,802.76606734,-0.066,0.082,0.995,0.0,0.0,-0.183,0.014997570481774766,4.697,3.776,69.086
802778442167,802776442167,802.778442167,802.776442167,-0.066,0.082,0.995,0.0,0.0,-0.183,0.014822817082549226,4.697,3.776,69.084
802788800577,802786800577,802.788800577,802.786800577,-0.066,0.082,0.995,0.0,0.0,-0.183,0.014621519588352616,4.697,3.776,69.082
802799074608,802797074608,802.799074608,802.797074608,-0.066,0.082,0.995,0.0,0.0,-0.183,0.014395736224630912,4.697,3.776,69.08
802809340638,802807340638,802.809340638,802.807340638,-0.066,0.082,0.995,0.0,0.0,-0.183,0.014158477929859914,4.697,3.776,69.078
802819546873,802817546873,802.819546873,802.817546873,-0.066,0.082,0.995,0.0,0.0,-0.183,0.013913371054415645,4.697,3.776,69.076
802829705856,802827705856,802.829705856,802.827705856,-0.066,0.082,0.995,0.0,0.0,-0.183,0.013658829733763991,4.697,3.776,69.074
802839918800,802837918800,802.8399188,802.8379188,-0.066,0.082,0.995,0.0,0.0,-0.122,0.013572237482153025,4.697,3.776,69.072
802850337672,802848337672,802.850337672,802.848337672,-0.066,0.082,0.995,0.0,0.0,-0.122,0.013609094722240646,4.697,3.776,69.07
802860558783,802858558783,802.860558783,802.858558783,-0.066,0.082,0.995,0.0,0.0,-0.122,0.013732032856778749,4.697,3.776,69.069
802871107744,802869107744,802.871107744,802.869107744,-0.066,0.082,0.995,0.0,0.0,-0.122,0.013923374997609943,4.697,3.776,69.067
802881331772,802879331772,802.881331772,802.879331772,-0.066,0.082,0.995,0.0,0.0,-0.122,0.014155060929468766,4.697,3.776,69.065
802891316413,802889316413,802.891316413,802.889316413,-0.066,0.082,0.995,0.0,0.0,-0.183,0.014246368038103405,4.697,3.776,69.063
802901630279,802899630279,802.901630279,802.899630279,-0.066,0.082,0.995,0.0,0.0,-0.183,0.01423619476679673,4.697,3.776,69.061
802911811430,802909811430,802.91181143,802.90981143,-0.066,0.082,0.995,0.0,0.0,-0.122,0.014325711208207992,4.697,3.776,69.059
802922022624,802920022624,802.922022624,802.920022624,-0.066,0.082,0.995,0.0,0.0,0.0,0.014834131947861325,4.697,3.776,69.057
802932244027,802930244027,802.932244027,802.930244027,-0.066,0.082,0.995,0.0,0.0,-0.122,0.015298240760856004,4.697,3.776,69.056
802942471555,802940471555,802.942471555,802.940471555,-0.066,0.082,0.995,0.0,0.0,-0.183,0.01555719295432287,4.697,3.776,69.054
802952859508,802950859508,802.952859508,802.950859508,-0.066,0.082,0.995,0.0,0.0,-0.183,0.01566761661506267,4.697,3.776,69.052
802963043575,802961043575,802.963043575,802.961043575,-0.066,0.082,0.995,0.0,0.0,-0.122,0.015842977769640363,4.697,3.776,69.05
802974918230,802972918230,802.97491823,802.97291823,-0.066,0.082,0.995,0.0,0.0,-0.122,0.016075096839975357,4.697,3.776,69.048
802985389605,802983389605,802.985389605,802.983389605,-0.066,0.082,0.995,0.0,0.0,-0.183,0.01615745074979946,4.697,3.776,69.046
802995614508,802993614508,802.995614508,802.993614508,-0.066,0.082,0.995,0.0,0.0,-0.183,0.016132684868743988,4.697,3.776,69.044
803005796242,803003796242,803.005796242,803.003796242,-0.066,0.082,0.995,0.0,0.0,-0.183,0.016038841377616953,4.697,3.776,69.042
803015985268,803013985268,803.015985268,803.013985268,-0.066,0.082,0.995,0.0,0.0,-0.183,0.01589545683977334,4.697,3.776,69.04
803026236714,803024236714,803.026236714,803.024236714,-0.066,0.082,0.995,0.0,0.0,-0.183,0.015714198935175075,4.697,3.776,69.038
803036659669,803034659669,803.036659669,803.034659669,-0.066,0.082,0.995,0.0,0.0,-0.122,0.015682357062893944,4.697,3.776,69.036
803046848403,803044848403,803.046848403,803.044848403,-0.066,0.082,0.995,0.0,0.0,-0.122,0.015756803577431068,4.697,3.776,69.034
803057227314,803055227314,803.057227314,803.055227314,-0.066,0.082,0.995,0.0,0.0,-0.183,0.01573278573682258,4.697,3.776,69.032
803067453968,803065453968,803.067453968,803.065453968,-0.066,0.082,0.995,0.0,0.0,-0.183,0.015639336753152096,4.697,3.776,69.031
803077859713,803075859713,803.077859713,803.075859713,-0.066,0.082,0.995,0.0,0.0,-0.183,0.01549594372420674,4.697,3.776,69.029
803088133911,803086133911,803.088133911,803.086133911,-0.066,0.082,0.995,0.0,0.0,-0.183,0.015312865939567719,4.697,3.776,69.027
803099003430,803097003430,803.09900343,803.09700343,-0.066,0.082,0.995,0.0,0.0,-0.183,0.015103055364815618,4.697,3.776,69.024
803108530922,803106530922,803.108530922,803.106530922,-0.066,0.082,0.995,0.0,0.0,-0.183,0.014880362846561057,4.697,3.776,69.023
803118734241,803116734241,803.118734241,803.116734241,-0.066,0.082,0.995,0.0,0.0,-0.183,0.014641108737618338,4.697,3.776,69.021
803129105276,803127105276,803.129105276,803.127105276,-0.066,0.082,0.995,0.0,0.0,-0.183,0.014388478719283039,4.697,3.776,69.018
803139375682,803137375682,803.139375682,803.137375682,-0.066,0.082,0.995,0.0,0.0,-0.183,0.014131546191220172,4.697,3.776,69.016
803149608169,803147608169,803.149608169,803.147608169,-0.066,0.082,0.995,0.0,0.0,-0.183,0.013871345399461207,4.697,3.776,69.014
803160124753,803158124753,803.160124753,803.158124753,-0.066,0.082,0.995,0.0,0.0,-0.183,0.013600500544768138,4.697,3.776,69.013
803170353448,803168353448,803.170353448,803.168353448,-0.066,0.082,0.995,0.0,0.0,-0.122,0.013506484519682766,4.697,3.776,69.011
803180218124,803178218124,803.180218124,803.178218124,-0.066,0.082,0.995,0.0,0.0,-0.122,0.013533090413646368,4.697,3.776,69.009
803190584201,803188584201,803.190584201,803.188584201,-0.066,0.082,0.995,0.0,0.0,-0.122,0.013652014284413866,4.697,3.776,69.007
803200776144,803198776144,803.200776144,803.198776144,-0.066,0.082,0.995,0.0,0.0,-0.122,0.013833609483395296,4.697,3.776,69.005
803210994922,803208994922,803.210994922,803.208994922,-0.066,0.082,0.995,0.0,0.0,0.0,0.014408738780451014,4.697,3.776,69.003
803221093819,803219093819,803.221093819,803.219093819,-0.066,0.082,0.995,0.0,0.0,-0.122,0.014915947461647365,4.697,3.776,69.001
803231526399,803229526399,803.231526399,803.229526399,-0.066,0.082,0.995,0.0,0.0,-0.183,0.015212563234662359,4.697,3.776,69.0
803241832390,803239832390,803.24183239,803.23983239,-0.066,0.082,0.995,0.0,0.0,-0.183,0.015346056981803205,4.697,3.776,68.998
803252113296,803250113296,803.252113296,803.250113296,-0.066,0.082,0.995,0.0,0.0,0.0,0.015899724677041427,4.697,3.776,68.996
803262397118,803260397118,803.262397118,803.260397118,-0.066,0.082,0.995,0.0,0.0,-0.183,0.016217771907452997,4.697,3.776,68.994
803272929162,803270929162,803.272929162,803.270929162,-0.066,0.082,0.995,0.0,0.0,-0.183,0.016370280240911583,4.697,3.777,68.992
803283312448,803281312448,803.283312448,803.281312448,-0.066,0.082,0.995,0.0,0.0,-0.183,0.01640119855576166,4.697,3.777,68.99
803292953988,803290953988,803.292953988,803.290953988,-0.066,0.082,0.995,0.0,0.0,-0.183,0.01635200172122881,4.697,3.777,68.988
803303722878,803301722878,803.303722878,803.301722878,-0.066,0.082,0.995,0.0,0.0,-0.183,0.016231681795973438,4.697,3.777,68.986
803314031493,803312031493,803.314031493,803.312031493,-0.066,0.082,0.995,0.0,0.0,-0.183,0.016071270019734,4.697,3.777,68.984
803323840750,803321840750,803.32384075,803.32184075,-0.066,0.082,0.995,0.0,0.0,-0.183,0.015885057434110762,4.697,3.777,68.982
803333950147,803331950147,803.333950147,803.331950147,-0.066,0.082,0.995,0.0,0.0,-0.183,0.01567321364416161,4.697,3.777,68.98
803344382727,803342382727,803.344382727,803.342382727,-0.066,0.082,0.995,0.0,0.0,-0.122,0.01561705076910037,4.697,3.777,68.978
803354684051,803352684051,803.354684051,803.352684051,-0.066,0.082,0.995,0.0,0.0,-0.122,0.01567511037098899,4.697,3.777,68.976
803364896995,803362896995,803.364896995,803.362896995,-0.066,0.082,0.995,0.0,0.0,-0.122,0.015814213645054125,4.697,3.777,68.974
803375265989,803373265989,803.375265989,803.373265989,-0.066,0.082,0.995,0.0,0.0,-0.183,0.015837296342400595,4.697,3.777,68.972
803385282631,803383282631,803.385282631,803.383282631,-0.066,0.082,0.995,0.0,0.0,-0.183,0.015779865673717714,4.697,3.777,68.971
803395544869,803393544869,803.395544869,803.393544869,-0.066,0.082,0.995,0.0,0.0,-0.183,0.015660665602447544,4.697,3.777,68.969
803405738271,803403738271,803.405738271,803.403738271,-0.066,0.082,0.995,0.0,0.0,-0.183,0.015498749452801473,4.697,3.777,68.967
803416164434,803414164434,803.416164434,803.414164434,-0.066,0.082,0.995,0.0,0.0,-0.183,0.015301793713764738,4.697,3.777,68.965
803426404797,803424404797,803.426404797,803.424404797,-0.066,0.082,0.995,0.0,0.0,-0.183,0.015084656930271079,4.697,3.777,68.963
803436583322,803434583322,803.436583322,803.434583322,-0.066,0.082,0.995,0.0,0.0,-0.183,0.014853753858942761,4.697,3.777,68.961
803446800058,803444800058,803.446800058,803.444800058,-0.066,0.082,0.995,0.0,0.0,-0.183,0.01460954033347473,4.697,3.777,68.959
803457042754,803455042754,803.457042754,803.455042754,-0.066,0.082,0.995,0.0,0.0,0.0,0.014877449836331581,4.697,3.777,68.957
803467421665,803465421665,803.467421665,803.465421665,-0.066,0.082,0.995,0.0,0.0,-0.183,0.014994633482049788,4.697,3.777,68.955
803477634901,803475634901,803.477634901,803.475634901,-0.066,0.082,0.995,0.0,0.0,-0.122,0.015174600853723146,4.697,3.777,68.953
803487833844,803485833844,803.487833844,803.485833844,-0.066,0.082,0.995,0.0,0.0,-0.122,0.015401503265675744,4.697,3.777,68.951
803498073331,803496073331,803.498073331,803.496073331,-0.066,0.082,0.995,0.0,0.0,0.0,0.01600891168428111,4.697,3.777,68.95
803508284817,803506284817,803.508284817,803.506284817,-0.066,0.082,0.995,0.0,0.0,-0.122,0.016545295164046268,4.697,3.777,68.948
803518316335,803516316335,803.518316335,803.516316335,-0.066,0.082,0.995,0.0,0.0,-0.183,0.016852904387206897,4.697,3.777,68.946
803528536279,803526536279,803.528536279,803.526536279,-0.066,0.082,0.995,0.0,0.0,-0.183,0.017002936905372763,4.697,3.777,68.944
803538918690,803536918690,803.53891869,803.53691869,-0.066,0.082,0.995,0.0,0.0,-0.183,0.01703403113688467,4.697,3.777,68.942
803549164886,803547164886,803.549164886,803.547164886,-0.066,0.082,0.995,0.0,0.0,-0.183,0.016979729110930205,4.697,3.777,68.94
803559408165,803557408165,803.559408165,803.557408165,-0.066,0.082,0.995,0.0,0.0,-0.183,0.016863653849939077,4.697,3.777,68.938
803569601567,803567601567,803.569601567,803.567601567,-0.066,0.082,0.995,0.0,0.0,-0.183,0.016704706561040998,4.697,3.777,68.936
803579801093,803577801093,803.579801093,803.577801093,-0.066,0.082,0.995,0.0,0.0,-0.183,0.01651329062157003,4.697,3.777,68.934
803590032997,803588032997,803.590032997,803.588032997,-0.066,0.082,0.995,0.0,0.0,-0.183,0.01629864502112132,4.697,3.777,68.932
803600433201,803598433201,803.600433201,803.598433201,-0.066,0.082,0.995,0.0,0.0,-0.183,0.01606347116897688,4.697,3.777,68.93
803610628644,803608628644,803.610628644,803.608628644,-0.066,0.082,0.995,0.0,0.0,-0.183,0.015820622647200036,4.697,3.777,68.929
803620835754,803618835754,803.620835754,803.618835754,-0.066,0.082,0.995,0.0,0.0,-0.183,0.015568608953018358,4.697,3.777,68.927
803631069699,803629069699,803.631069699,803.629069699,-0.066,0.082,0.995,0.0,0.0,-0.122,0.015483858492235087,4.697,3.777,68.925
803641282352,803639282352,803.641282352,803.639282352,-0.066,0.082,0.995,0.0,0.0,-0.183,0.015346247019357795,4.697,3.777,68.923
803651666513,803649666513,803.651666513,803.649666513,-0.066,0.082,0.995,0.0,0.0,-0.183,0.01516752709395281,4.697,3.777,68.921
803661703573,803659703573,803.661703573,803.659703573,-0.066,0.082,0.995,0.0,0.0,-0.183,0.014968087381490568,4.697,3.777,68.919
803672098818,803670098818,803.672098818,803.670098818,-0.066,0.082,0.995,0.0,0.0,0.0,0.015276626854258847,4.697,3.777,68.917
803682317596,803680317596,803.682317596,803.680317596,-0.066,0.082,0.995,0.0,0.0,-0.183,0.015419352676261645,4.697,3.777,68.915
803692724508,803690724508,803.692724508,803.690724508,-0.066,0.082,0.995,0.0,0.0,-0.122,0.015623901038894175,4.697,3.777,68.913
803702921702,803700921702,803.702921702,803.700921702,-0.066,0.082,0.995,0.0,0.0,-0.183,0.015692687656323583,4.697,3.777,68.911
803713179856,803711179856,803.713179856,803.711179856,-0.066,0.082,0.995,0.0,0.0,-0.183,0.01566593178165149,4.697,3.777,68.909
803723437428,803721437428,803.723437428,803.721437428,-0.066,0.082,0.995,0.0,0.0,-0.183,0.01556996285862293,4.697,3.777,68.907
803733589119,803731589119,803.733589119,803.731589119,-0.066,0.082,0.995,0.0,0.0,-0.183,0.01542542437767597,4.697,3.777,68.906
803743977072,803741977072,803.743977072,803.741977072,-0.066,0.082,0.995,0.0,0.0,-0.183,0.015240819677033269,4.697,3.777,68.904
803754558410,803752558410,803.75455841,803.75255841,-0.066,0.082,0.995,0.0,0.0,-0.183,0.015028043992134971,4.697,3.777,68.902
803764946655,803762946655,803.764946655,803.762946655,-0.066,0.082,0.995,0.0,0.0,-0.183,0.014797819454253725,4.697,3.777,68.9
803774771662,803772771662,803.774771662,803.772771662,-0.066,0.082,0.995,0.0,0.0,-0.183,0.014565056331947893,4.697,3.777,68.898
803785069777,803783069777,803.785069777,803.783069777,-0.066,0.082,0.995,0.0,0.0,0.0,0.01484005152988029,4.697,3.777,68.896
803795249761,803793249761,803.795249761,803.793249761,-0.066,0.082,0.995,0.0,0.0,-0.183,0.014960986909066167,4.697,3.777,68.894
803805441413,803803441413,803.805441413,803.803441413,-0.066,0.082,0.995,0.0,0.0,-0.183,0.014972522718324369,4.697,3.777,68.892
803821322025,803819322025,803.821322025,803.819322025,-0.066,0.082,0.995,0.0,0.0,0.0,0.01589891341877408,4.697,3.777,68.889
803831170950,803829170950,803.83117095,803.82917095,-0.066,0.082,0.995,0.0,0.0,-0.183,0.01625271591594333,4.697,3.777,68.887
803841507275,803839507275,803.841507275,803.839507275,-0.066,0.082,0.995,0.0,0.0,-0.183,0.016438303346818166,4.697,3.777,68.885
803851825808,803849825808,803.851825808,803.849825808,-0.066,0.082,0.995,0.0,0.0,-0.183,0.01649418852966158,4.697,3.777,68.883
803862189843,803860189843,803.862189843,803.860189843,-0.066,0.082,0.995,0.0,0.0,-0.183,0.01645617320676115,4.697,3.777,68.881
803872390245,803870390245,803.872390245,803.870390245,-0.066,0.082,0.995,0.0,0.0,-0.183,0.016353122095085174,4.697,3.777,68.879
803882588314,803880588314,803.882588314,803.880588314,-0.066,0.082,0.995,0.0,0.0,-0.122,0.016375393776012704,4.697,3.777,68.877
803892805341,803890805341,803.892805341,803.890805341,-0.066,0.082,0.995,0.0,0.0,-0.122,0.016488648355004337,4.697,3.777,68.875
803903020910,803901020910,803.90302091,803.90102091,-0.066,0.082,0.995,0.0,0.0,-0.183,0.016494131681420606,4.697,3.777,68.873
803918074021,803916074021,803.918074021,803.916074021,-0.066,0.082,0.995,0.0,0.0,-0.183,0.01635747363615665,4.697,3.777,68.871
803927972532,803925972532,803.927972532,803.925972532,-0.066,0.082,0.995,0.0,0.0,-0.122,0.016385566964667083,4.697,3.777,68.869
803938288357,803936288357,803.938288357,803.936288357,-0.066,0.082,0.995,0.0,0.0,-0.122,0.016502810452541348,4.697,3.777,68.867
803948391212,803946391212,803.948391212,803.946391212,-0.066,0.082,0.995,0.0,0.0,-0.122,0.016683985349082744,4.697,3.777,68.865
803958489817,803956489817,803.958489817,803.956489817,-0.066,0.082,0.995,0.0,0.0,-0.122,0.01691047238682099,4.697,3.777,68.863
803968776265,803966776265,803.968776265,803.966776265,-0.066,0.082,0.995,0.0,0.0,-0.122,0.01717356638856178,4.697,3.777,68.862
803978973166,803976973166,803.978973166,803.976973166,-0.066,0.082,0.995,0.0,0.0,0.0,0.017806165912462618,4.697,3.777,68.86
803989192527,803987192527,803.989192527,803.987192527,-0.066,0.082,0.995,0.0,0.0,-0.183,0.018186669650432887,4.697,3.777,68.858
803999730696,803997730696,803.999730696,803.997730696,-0.066,0.082,0.995,0.0,0.0,-0.183,0.018386159807523193,4.697,3.777,68.856
804009796050,804007796050,804.00979605,804.00779605,-0.066,0.082,0.995,0.0,0.0,-0.183,0.018451511847342426,4.697,3.777,68.854
804020074914,804018074914,804.020074914,804.018074914,-0.066,0.082,0.995,0.0,0.0,-0.183,0.018422446039397973,4.697,3.777,68.852
804030275024,804028275024,804.030275024,804.028275024,-0.066,0.082,0.995,0.0,0.0,-0.183,0.018325031383689815,4.697,3.777,68.85
804040532595,804038532595,804.040532595,804.038532595,-0.066,0.082,0.995,0.0,0.0,-0.183,0.018178753990962013,4.697,3.777,68.848
804050926965,804048926965,804.050926965,804.048926965,-0.066,0.082,0.995,0.0,0.0,-0.122,0.0181702013655413,4.697,3.777,68.846
804061171994,804059171994,804.061171994,804.059171994,-0.066,0.082,0.995,0.0,0.0,-0.122,0.01826103847045422,4.697,3.777,68.845
804071211971,804069211971,804.071211971,804.069211971,-0.066,0.082,0.995,0.0,0.0,-0.122,0.0184237136167153,4.697,3.777,68.843
804081589424,804079589424,804.081589424,804.079589424,-0.066,0.082,0.995,0.0,0.0,-0.122,0.018638691783880182,4.697,3.777,68.841
804091675486,804089675486,804.091675486,804.089675486,-0.066,0.082,0.995,0.0,0.0,-0.122,0.01888870349347353,4.697,3.777,68.839
804101952017,804099952017,804.101952017,804.099952017,-0.066,0.082,0.995,0.0,0.0,-0.183,0.018994198131192408,4.697,3.777,68.837
804112259174,804110259174,804.112259174,804.110259174,-0.066,0.082,0.995,0.0,0.0,0.0,0.019521917435904562,4.697,3.777,68.835
804122373238,804120373238,804.122373238,804.120373238,-0.066,0.082,0.995,0.0,0.0,-0.183,0.0198222561867001,4.697,3.777,68.833
804132703147,804130703147,804.132703147,804.130703147,-0.066,0.082,0.995,0.0,0.0,-0.183,0.019964039315382726,4.697,3.777,68.831
804143323570,804141323570,804.14332357,804.14132357,-0.066,0.082,0.995,0.0,0.0,-0.183,0.019988570635845134,4.697,3.777,68.83
804154266594,804152266594,804.154266594,804.152266594,-0.066,0.082,0.995,0.0,0.0,-0.183,0.01991393985679463,4.697,3.777,68.827
804164480121,804162480121,804.164480121,804.162480121,-0.066,0.082,0.995,0.0,0.0,-0.183,0.01978983560255371,4.697,3.777,68.825
804174684898,804172684898,804.174684898,804.172684898,-0.066,0.082,0.995,0.0,0.0,-0.183,0.019624146376605187,4.697,3.777,68.824
804184892884,804182892884,804.184892884,804.182892884,-0.066,0.082,0.995,0.0,0.0,-0.183,0.019428274990725303,4.697,3.777,68.821
804195119245,804193119245,804.195119245,804.193119245,-0.066,0.082,0.995,0.0,0.0,-0.183,0.019210340459108213,4.697,3.777,68.82
804205509824,804203509824,804.205509824,804.203509824,-0.066,0.082,0.995,0.0,0.0,-0.183,0.018972726494344047,4.697,3.777,68.818
804215808230,804213808230,804.21580823,804.21380823,-0.066,0.082,0.995,0.0,0.0,-0.183,0.018728181931715628,4.697,3.777,68.816
804225993756,804223993756,804.225993756,804.223993756,-0.066,0.082,0.995,0.0,0.0,-0.183,0.018473620110264724,4.697,3.777,68.814
804236200575,804234200575,804.236200575,804.234200575,-0.066,0.082,0.995,0.0,0.0,-0.183,0.018214738837918305,4.697,3.777,68.812
804246421978,804244421978,804.246421978,804.244421978,-0.066,0.082,0.995,0.0,0.0,-0.183,0.017951443476432342,4.697,3.777,68.81
804256660007,804254660007,804.256660007,804.254660007,-0.066,0.082,0.995,0.0,0.0,-0.183,0.017685284359326616,4.697,3.777,68.808
804266917286,804264917286,804.266917286,804.264917286,-0.066,0.082,0.995,0.0,0.0,-0.183,0.017416613131821326,4.697,3.777,68.806
804277075103,804275075103,804.277075103,804.275075103,-0.066,0.082,0.995,0.0,0.0,-0.183,0.017146521180179276,4.697,3.777,68.804
804287356592,804285356592,804.287356592,804.285356592,-0.066,0.082,0.995,0.0,0.0,-0.183,0.016875130908272067,4.697,3.777,68.802
804297511200,804295511200,804.2975112,804.2955112,-0.066,0.082,0.995,0.0,0.0,-0.183,0.01660319444513699,4.697,3.777,68.8
804307923071,804305923071,804.307923071,804.305923071,-0.066,0.082,0.995,0.0,0.0,-0.183,0.016325661524198842,4.697,3.777,68.799
804318007675,804316007675,804.318007675,804.316007675,-0.066,0.082,0.995,0.0,0.0,-0.183,0.016057228824244655,4.697,3.776,68.797
804328370835,804326370835,804.328370835,804.326370835,-0.066,0.082,0.995,0.0,0.0,-0.183,0.015779163198794622,4.697,3.776,68.795
804338402937,804336402937,804.338402937,804.336402937,-0.066,0.082,0.995,0.0,0.0,-0.183,0.0155100156237611,4.696,3.776,68.793
804348622298,804346622298,804.348622298,804.346622298,-0.066,0.082,0.995,0.0,0.0,-0.183,0.015236075376179548,4.696,3.776,68.791
804358833200,804356833200,804.3588332,804.3568332,-0.066,0.082,0.995,0.0,0.0,-0.183,0.014962228323441015,4.696,3.776,68.789
804369120815,804367120815,804.369120815,804.367120815,-0.066,0.082,0.995,0.0,0.0,-0.183,0.014688008533556325,4.696,3.776,68.787
804379433805,804377433805,804.379433805,804.377433805,-0.066,0.082,0.995,0.0,0.0,-0.183,0.01440944167878272,4.696,3.776,68.785
804389663084,804387663084,804.389663084,804.387663084,-0.066,0.082,0.995,0.0,0.0,-0.183,0.014135160420185457,4.696,3.776,68.783
804399882445,804397882445,804.399882445,804.397882445,-0.066,0.082,0.995,0.0,0.0,0.0,0.01438108184911555,4.696,3.776,68.782
804410312984,804408312984,804.410312984,804.408312984,-0.066,0.082,0.995,0.0,0.0,-0.122,0.014661561666160856,4.696,3.776,68.78
804420350627,804418350627,804.420350627,804.418350627,-0.066,0.082,0.995,0.0,0.0,-0.122,0.01495118086998225,4.697,3.776,68.778
804430563571,804428563571,804.430563571,804.428563571,-0.066,0.082,0.995,0.0,0.0,-0.122,0.015261898243857996,4.697,3.776,68.776
804440931106,804438931106,804.440931106,804.438931106,-0.066,0.082,0.995,0.0,0.0,-0.122,0.015587912306007012,4.697,3.776,68.774
804450978084,804448978084,804.450978084,804.448978084,-0.066,0.082,0.995,0.0,0.0,-0.122,0.01591116733482988,4.697,3.776,68.772
804461222238,804459222238,804.461222238,804.459222238,-0.066,0.082,0.995,0.0,0.0,-0.183,0.016072316263177507,4.697,3.776,68.771
804471449474,804469449474,804.471449474,804.469449474,-0.066,0.082,0.995,0.0,0.0,-0.183,0.016112198933555675,4.697,3.776,68.769
804481637917,804479637917,804.481637917,804.479637917,-0.066,0.082,0.995,0.0,0.0,-0.183,0.01606488338659891,4.697,3.777,68.767
804491865153,804489865153,804.491865153,804.489865153,-0.066,0.082,0.995,0.0,0.0,-0.183,0.015954312589161548,4.697,3.777,68.765
804502070806,804500070806,804.502070806,804.500070806,-0.066,0.082,0.995,0.0,0.0,-0.183,0.015798431240769812,4.697,3.777,68.763
804512322835,804510322835,804.512322835,804.510322835,-0.066,0.082,0.995,0.0,0.0,-0.183,0.015609099749362436,4.697,3.777,68.761
804522518278,804520518278,804.522518278,804.520518278,-0.066,0.082,0.995,0.0,0.0,-0.183,0.01539669682365171,4.697,3.777,68.759
804532699429,804530699429,804.532699429,804.530699429,-0.066,0.082,0.995,0.0,0.0,-0.183,0.015167801280824423,4.697,3.777,68.757
804542901872,804540901872,804.542901872,804.540901872,-0.066,0.082,0.995,0.0,0.0,0.0,0.01544483448267396,4.697,3.777,68.755
804553209905,804551209905,804.553209905,804.551209905,-0.066,0.082,0.995,0.0,0.0,-0.122,0.015743893019235386,4.696,3.777,68.753
804563409723,804561409723,804.563409723,804.561409723,-0.066,0.082,0.995,0.0,0.0,-0.183,0.01588231080979757,4.696,3.777,68.751
804573775217,804571775217,804.573775217,804.571775217,-0.066,0.082,0.995,0.0,0.0,-0.183,0.01590505602879916,4.696,3.777,68.749
804583993995,804581993995,804.583993995,804.581993995,-0.066,0.082,0.995,0.0,0.0,0.0,0.016365169626739694,4.696,3.777,68.747
804594263525,804592263525,804.594263525,804.592263525,-0.066,0.082,0.995,0.0,0.0,-0.122,0.016794238572104655,4.696,3.777,68.745
804604461010,804602461010,804.60446101,804.60246101,-0.066,0.082,0.995,0.0,0.0,-0.122,0.017201680538193983,4.696,3.777,68.744
804614640411,804612640411,804.614640411,804.612640411,-0.066,0.082,0.995,0.0,0.0,-0.122,0.017590948874726856,4.696,3.777,68.742
804624878148,804622878148,804.624878148,804.622878148,-0.066,0.082,0.995,0.0,0.0,-0.122,0.017971294531494736,4.696,3.777,68.74
804634933000,804632933000,804.634933,804.632933,-0.066,0.082,0.995,0.0,0.0,0.0,0.01867395345470301,4.696,3.777,68.738
804645319495,804643319495,804.645319495,804.643319495,-0.066,0.082,0.995,0.0,0.0,-0.183,0.019116869182295895,4.696,3.777,68.736
804655350430,804653350430,804.65535043,804.65335043,-0.066,0.082,0.995,0.0,0.0,-0.183,0.01935332847047233,4.697,3.777,68.734
804665746842,804663746842,804.665746842,804.663746842,-0.066,0.082,0.995,0.0,0.0,-0.183,0.019450807108221835,4.697,3.777,68.732
804675966786,804673966786,804.675966786,804.673966786,-0.066,0.082,0.995,0.0,0.0,-0.183,0.019443717016027713,4.697,3.777,68.73
804686198981,804684198981,804.686198981,804.684198981,-0.066,0.082,0.995,0.0,0.0,-0.183,0.019362090313282274,4.697,3.777,68.728
804696400258,804694400258,804.696400258,804.694400258,-0.066,0.082,0.995,0.0,0.0,-0.183,0.019227384945757008,4.697,3.777,68.726
804706623119,804704623119,804.706623119,804.704623119,-0.066,0.082,0.995,0.0,0.0,-0.183,0.019053594964805874,4.697,3.777,68.724
804716899358,804714899358,804.716899358,804.714899358,-0.066,0.082,0.995,0.0,0.0,-0.183,0.01885082237232817,4.697,3.777,68.722
804727076425,804725076425,804.727076425,804.725076425,-0.066,0.082,0.995,0.0,0.0,-0.183,0.018629841556040975,4.697,3.777,68.72
804737326413,804735326413,804.737326413,804.735326413,-0.066,0.082,0.995,0.0,0.0,-0.183,0.018392329233048066,4.697,3.777,68.718
804747576693,804745576693,804.747576693,804.745576693,-0.066,0.082,0.995,0.0,0.0,-0.183,0.018146755561575658,4.697,3.777,68.716
804757708549,804755708549,804.757708549,804.755708549,-0.066,0.082,0.995,0.0,0.0,-0.183,0.017892072184902828,4.697,3.777,68.714
804767763985,804765763985,804.767763985,804.765763985,-0.066,0.082,0.995,0.0,0.0,-0.122,0.017804814815366055,4.697,3.777,68.713
804778146396,804776146396,804.778146396,804.776146396,-0.066,0.082,0.995,0.0,0.0,-0.122,0.017839891817383643,4.697,3.777,68.711
804788395509,804786395509,804.788395509,804.786395509,-0.066,0.082,0.995,0.0,0.0,-0.122,0.017961754190724506,4.697,3.777,68.709
804798596202,804796596202,804.798596202,804.796596202,-0.066,0.082,0.995,0.0,0.0,-0.122,0.01814694526223876,4.697,3.777,68.707
804808614595,804806614595,804.808614595,804.806614595,-0.066,0.082,0.995,0.0,0.0,-0.183,0.01820498879149729,4.697,3.777,68.705
804819132055,804817132055,804.819132055,804.817132055,-0.066,0.082,0.995,0.0,0.0,0.0,0.01870795092806484,4.697,3.777,68.703
804829175240,804827175240,804.82917524,804.82717524,-0.066,0.082,0.995,0.0,0.0,-0.183,0.01898627671422682,4.697,3.777,68.701
804839448562,804837448562,804.839448562,804.837448562,-0.066,0.082,0.995,0.0,0.0,-0.183,0.019112900601771173,4.697,3.777,68.699
804849633213,804847633213,804.849633213,804.847633213,-0.066,0.082,0.995,0.0,0.0,-0.183,0.019127585886240278,4.697,3.777,68.698
804860042167,804858042167,804.860042167,804.858042167,-0.066,0.082,0.995,0.0,0.0,0.0,0.019595723187029703,4.697,3.777,68.696
804870344949,804868344949,804.870344949,804.868344949,-0.066,0.082,0.995,0.0,0.0,-0.183,0.019852258096445384,4.697,3.777,68.694
804880495182,804878495182,804.880495182,804.878495182,-0.066,0.082,0.995,0.0,0.0,-0.183,0.019959876365863768,4.697,3.777,68.692
804890717460,804888717460,804.89071746,804.88871746,-0.066,0.082,0.995,0.0,0.0,-0.183,0.019962030323491916,4.697,3.777,68.69
804900882568,804898882568,804.900882568,804.898882568,-0.066,0.082,0.995,0.0,0.0,-0.183,0.019887413872102112,4.697,3.777,68.688
804911174850,804909174850,804.91117485,804.90917485,-0.066,0.082,0.995,0.0,0.0,-0.183,0.019757243593829604,4.697,3.777,68.686
804921308456,804919308456,804.921308456,804.919308456,-0.066,0.082,0.995,0.0,0.0,-0.183,0.019587318509143775,4.697,3.777,68.684
804931622030,804929622030,804.93162203,804.92962203,-0.066,0.082,0.995,0.0,0.0,-0.183,0.019387379138579654,4.697,3.777,68.682
804941759137,804939759137,804.941759137,804.939759137,-0.066,0.082,0.995,0.0,0.0,-0.183,0.019167728052625673,4.697,3.777,68.68
804951984624,804949984624,804.951984624,804.949984624,-0.066,0.082,0.995,0.0,0.0,-0.183,0.01893260877764782,4.697,3.777,68.678
804962360618,804960360618,804.962360618,804.960360618,-0.066,0.082,0.995,0.0,0.0,-0.183,0.018682264757239664,4.697,3.777,68.676
804972565978,804970565978,804.972565978,804.970565978,-0.066,0.082,0.995,0.0,0.0,-0.183,0.01842856063276501,4.697,3.777,68.674
804982801674,804980801674,804.982801674,804.980801674,-0.066,0.082,0.995,0.0,0.0,-0.183,0.018168605017234003,4.697,3.777,68.672
804993006159,804991006159,804.993006159,804.991006159,-0.066,0.082,0.995,0.0,0.0,-0.183,0.01790517535128012,4.697,3.777,68.67
805003291732,805001291732,805.003291732,805.001291732,-0.066,0.082,0.995,0.0,0.0,-0.183,0.01763878335318251,4.697,3.777,68.668
805013450423,805011450423,805.013450423,805.011450423,-0.066,0.082,0.995,0.0,0.0,-0.183,0.0173700115330613,4.697,3.777,68.666
805023866669,805021866669,805.023866669,805.021866669,-0.066,0.082,0.995,0.0,0.0,-0.183,0.017095171867237212,4.697,3.777,68.664
805034133283,805032133283,805.034133283,805.032133283,-0.066,0.082,0.995,0.0,0.0,-0.183,0.016823593238384192,4.697,3.777,68.662
805044371895,805042371895,805.044371895,805.042371895,-0.066,0.082,0.995,0.0,0.0,-0.183,0.016550575543502307,4.697,3.777,68.66
805054659218,805052659218,805.054659218,805.052659218,-0.066,0.082,0.995,0.0,0.0,-0.122,0.01645152156142656,4.697,3.777,68.659
805064868078,805062868078,805.064868078,805.062868078,-0.066,0.082,0.995,0.0,0.0,-0.122,0.01647795541676397,4.697,3.777,68.657
805075153360,805073153360,805.07515336,805.07315336,-0.066,0.082,0.995,0.0,0.0,-0.183,0.016420815789093816,4.697,3.777,68.655
805085309717,805083309717,805.085309717,805.083309717,-0.066,0.082,0.995,0.0,0.0,-0.183,0.016303319883646687,4.697,3.777,68.653
805095344444,805093344444,805.095344444,805.093344444,-0.066,0.082,0.995,0.0,0.0,-0.183,0.016145519716989618,4.697,3.777,68.651
805105728022,805103728022,805.105728022,805.103728022,-0.066,0.082,0.995,0.0,0.0,-0.183,0.01594980521402592,4.697,3.777,68.649
805115961675,805113961675,805.115961675,805.113961675,-0.066,0.082,0.995,0.0,0.0,-0.183,0.015734554326404443,4.697,3.777,68.647
805126269416,805124269416,805.126269416,805.124269416,-0.066,0.082,0.995,0.0,0.0,-0.183,0.015502533853484917,4.697,3.777,68.645
805136389022,805134389022,805.136389022,805.134389022,-0.066,0.082,0.995,0.0,0.0,-0.183,0.015259412247652905,4.697,3.777,68.643
805146600216,805144600216,805.146600216,805.144600216,-0.066,0.082,0.995,0.0,0.0,-0.183,0.015007488310395334,4.697,3.777,68.641
805156981169,805154981169,805.156981169,805.154981169,-0.066,0.082,0.995,0.0,0.0,-0.183,0.014744996002101681,4.697,3.777,68.639
805167200238,805165200238,805.167200238,805.165200238,-0.066,0.082,0.995,0.0,0.0,-0.183,0.014482163423741303,4.697,3.777,68.637
805177510021,805175510021,805.177510021,805.175510021,-0.066,0.082,0.995,0.0,0.0,-0.183,0.014216208254744083,4.697,3.777,68.635
805188210073,805186210073,805.188210073,805.186210073,-0.066,0.082,0.995,0.0,0.0,-0.183,0.013936791719681733,4.697,3.777,68.633
805199044716,805197044716,805.199044716,805.197044716,-0.066,0.082,0.995,0.0,0.0,-0.183,0.013653176253447748,4.697,3.777,68.631
805209220325,805207220325,805.209220325,805.207220325,-0.066,0.082,0.995,0.0,0.0,-0.183,0.01338807026963929,4.697,3.777,68.629
805219228008,805217228008,805.219228008,805.217228008,-0.066,0.082,0.995,0.0,0.0,0.0,0.01363457099679682,4.697,3.777,68.628
805229451745,805227451745,805.229451745,805.227451745,-0.066,0.082,0.995,0.0,0.0,-0.183,0.013736674633890644,4.697,3.777,68.626
805239886659,805237886659,805.239886659,805.237886659,-0.066,0.082,0.995,0.0,0.0,-0.183,0.013733302062773034,4.697,3.777,68.624
805250052642,805248052642,805.250052642,805.248052642,-0.066,0.082,0.995,0.0,0.0,-0.183,0.01365481680683747,4.697,3.777,68.622
805260450512,805258450512,805.260450512,805.258450512,-0.066,0.082,0.995,0.0,0.0,0.0,0.014048448831568298,4.697,3.777,68.62
805270649164,805268649164,805.270649164,805.268649164,-0.066,0.082,0.995,0.0,0.0,-0.183,0.014253757230558457,4.697,3.777,68.618
805281273963,805279273963,805.281273963,805.279273963,-0.066,0.082,0.995,0.0,0.0,-0.183,0.014325322448773183,4.697,3.777,68.616
805291603579,805289603579,805.291603579,805.289603579,-0.066,0.082,0.995,0.0,0.0,-0.183,0.014297518760502267,4.697,3.777,68.614
805301042108,805299042108,805.301042108,805.299042108,-0.066,0.082,0.995,0.0,0.0,0.0,0.014700326772682248,4.697,3.777,68.612
805313130274,805311130274,805.313130274,805.311130274,-0.066,0.082,0.995,0.0,0.0,-0.183,0.014935803628683566,4.697,3.777,68.609
805323346427,805321346427,805.323346427,805.321346427,-0.066,0.082,0.995,0.0,0.0,-0.183,0.015003192232575957,4.697,3.777,68.607
805333587664,805331587664,805.333587664,805.331587664,-0.066,0.082,0.995,0.0,0.0,-0.183,0.014975392158064165,4.697,3.777,68.606
805343771440,805341771440,805.34377144,805.34177144,-0.066,0.082,0.995,0.0,0.0,-0.183,0.014879408925636162,4.697,3.777,68.604
805353989051,805351989051,805.353989051,805.351989051,-0.066,0.082,0.995,0.0,0.0,-0.183,0.014733771326047895,4.697,3.777,68.602
805364378754,805362378754,805.364378754,805.362378754,-0.066,0.082,0.995,0.0,0.0,-0.183,0.014548798890406422,4.697,3.777,68.6
805374604532,805372604532,805.374604532,805.372604532,-0.066,0.082,0.995,0.0,0.0,-0.183,0.01434139701939081,4.697,3.777,68.598
805384816018,805382816018,805.384816018,805.382816018,-0.066,0.082,0.995,0.0,0.0,-0.183,0.014114923231076064,4.697,3.777,68.596
805395036838,805393036838,805.395036838,805.393036838,-0.066,0.082,0.995,0.0,0.0,0.0,0.014394666595790055,4.697,3.777,68.594
805405276325,805403276325,805.405276325,805.403276325,-0.066,0.082,0.995,0.0,0.0,-0.183,0.014520584578037352,4.697,3.777,68.592
805415476435,805413476435,805.415476435,805.413476435,-0.066,0.082,0.995,0.0,0.0,-0.183,0.014535225392230464,4.697,3.777,68.59
805425697838,805423697838,805.425697838,805.423697838,-0.066,0.082,0.995,0.0,0.0,-0.183,0.014469361076986967,4.697,3.777,68.588
805435905240,805433905240,805.43590524,805.43390524,-0.066,0.082,0.995,0.0,0.0,0.0,0.014865054610882925,4.697,3.777,68.586
805446317986,805444317986,805.446317986,805.444317986,-0.066,0.082,0.995,0.0,0.0,-0.183,0.01507605759685546,4.697,3.777,68.584
805456512846,805454512846,805.456512846,805.454512846,-0.066,0.082,0.995,0.0,0.0,-0.183,0.01514931659816712,4.697,3.777,68.582
805466752041,805464752041,805.466752041,805.464752041,-0.066,0.082,0.995,0.0,0.0,-0.183,0.015125864615286156,4.697,3.777,68.581
805476948359,805474948359,805.476948359,805.474948359,-0.066,0.082,0.995,0.0,0.0,-0.183,0.015032981802327634,4.697,3.777,68.579
805487243558,805485243558,805.487243558,805.485243558,-0.066,0.082,0.995,0.0,0.0,-0.183,0.014889235677574778,4.697,3.777,68.577
805497650762,805495650762,805.497650762,805.495650762,-0.066,0.082,0.995,0.0,0.0,-0.183,0.014706157953123251,4.697,3.777,68.575
805507766284,805505766284,805.507766284,805.505766284,-0.066,0.082,0.995,0.0,0.0,-0.122,0.014672995717905472,4.697,3.777,68.573
805518004605,805516004605,805.518004605,805.516004605,-0.066,0.082,0.995,0.0,0.0,0.0,0.015092731359422261,4.697,3.777,68.571
805528243509,805526243509,805.528243509,805.526243509,-0.066,0.082,0.995,0.0,0.0,-0.183,0.015319474753012397,4.697,3.777,68.569
805538370115,805536370115,805.538370115,805.536370115,-0.066,0.082,0.995,0.0,0.0,-0.183,0.015406986725400636,4.697,3.777,68.567
805548629728,805546629728,805.548629728,805.546629728,-0.066,0.082,0.995,0.0,0.0,-0.183,0.01539385031890782,4.697,3.777,68.565
805558852881,805556852881,805.558852881,805.556852881,-0.066,0.082,0.995,0.0,0.0,-0.183,0.015308062304639962,4.697,3.777,68.563
805569078951,805567078951,805.569078951,805.567078951,-0.066,0.082,0.995,0.0,0.0,-0.183,0.015169828286045699,4.697,3.777,68.561
805579539533,805577539533,805.579539533,805.577539533,-0.066,0.082,0.995,0.0,0.0,-0.183,0.01499060032886681,4.697,3.777,68.559
805589673139,805587673139,805.589673139,805.587673139,-0.066,0.082,0.995,0.0,0.0,-0.183,0.014787108760296772,4.697,3.777,68.558
805599881125,805597881125,805.599881125,805.597881125,-0.066,0.082,0.995,0.0,0.0,-0.183,0.014563918774167116,4.697,3.777,68.556
805610171365,805608171365,805.610171365,805.608171365,-0.066,0.082,0.995,0.0,0.0,-0.183,0.01432646591680404,4.697,3.777,68.554
805620351932,805618351932,805.620351932,805.618351932,-0.066,0.082,0.995,0.0,0.0,-0.183,0.014078443496669089,4.697,3.777,68.552
805630622046,805628622046,805.630622046,805.628622046,-0.066,0.082,0.995,0.0,0.0,-0.183,0.013823722358227356,4.697,3.777,68.55
805640754194,805638754194,805.640754194,805.638754194,-0.066,0.082,0.995,0.0,0.0,-0.183,0.01356334021959531,4.697,3.777,68.548
805651004182,805649004182,805.651004182,805.649004182,-0.066,0.082,0.995,0.0,0.0,0.0,0.013818312796324308,4.697,3.777,68.546
805661415761,805659415761,805.661415761,805.659415761,-0.066,0.082,0.995,0.0,0.0,-0.183,0.01392634738494249,4.697,3.777,68.544
805671660790,805669660790,805.67166079,805.66966079,-0.066,0.082,0.995,0.0,0.0,-0.183,0.01392673455738159,4.697,3.777,68.542
805681859733,805679859733,805.681859733,805.679859733,-0.066,0.082,0.995,0.0,0.0,-0.183,0.013850920579254578,4.697,3.777,68.54
805691983423,805689983423,805.691983423,805.689983423,-0.066,0.082,0.995,0.0,0.0,0.0,0.014239180010027072,4.697,3.777,68.538
805702210076,805700210076,805.702210076,805.700210076,-0.066,0.082,0.995,0.0,0.0,-0.122,0.014617091277617117,4.697,3.777,68.536
805712417478,805710417478,805.712417478,805.710417478,-0.066,0.082,0.995,0.0,0.0,-0.183,0.014813356291397206,4.697,3.777,68.535
805722646173,805720646173,805.722646173,805.720646173,-0.066,0.082,0.995,0.0,0.0,-0.183,0.01487893933343839,4.697,3.777,68.533
805733033834,805731033834,805.733033834,805.731033834,-0.066,0.082,0.995,0.0,0.0,0.0,0.015382865302747876,4.697,3.777,68.531
805743229569,805741229569,805.743229569,805.741229569,-0.066,0.082,0.995,0.0,0.0,-0.183,0.01566464586728674,4.697,3.777,68.529
805753469056,805751469056,805.753469056,805.751469056,-0.066,0.082,0.995,0.0,0.0,-0.183,0.015791850891784958,4.697,3.777,68.527
805763660708,805761660708,805.763660708,805.761660708,-0.066,0.082,0.995,0.0,0.0,-0.183,0.015807376654679614,4.697,3.777,68.525
805773872777,805771872777,805.773872777,805.771872777,-0.066,0.082,0.995,0.0,0.0,-0.183,0.015742450490336443,4.697,3.777,68.523
805784340651,805782340651,805.784340651,805.782340651,-0.066,0.082,0.995,0.0,0.0,-0.183,0.015616589184749903,4.697,3.777,68.521
805794291373,805792291373,805.794291373,805.792291373,-0.066,0.082,0.995,0.0,0.0,-0.183,0.015454391610208933,4.697,3.777,68.519
805804605822,805802605822,805.804605822,805.802605822,-0.066,0.082,0.995,0.0,0.0,-0.183,0.015258663258449563,4.697,3.777,68.517
805814754596,805812754596,805.814754596,805.812754596,-0.066,0.082,0.995,0.0,0.0,-0.183,0.01504126092558117,4.697,3.777,68.515
805824972207,805822972207,805.824972207,805.822972207,-0.066,0.082,0.995,0.0,0.0,0.0,0.015328416084453877,4.697,3.777,68.514
805835175234,805833175234,805.835175234,805.833175234,-0.066,0.082,0.995,0.0,0.0,-0.183,0.015459306774031244,4.697,3.777,68.511
805845594981,805843594981,805.845594981,805.843594981,-0.066,0.082,0.995,0.0,0.0,-0.183,0.015476356501355888,4.697,3.777,68.51
805855776423,805853776423,805.855776423,805.853776423,-0.066,0.082,0.995,0.0,0.0,-0.183,0.015412657442882572,4.697,3.777,68.508
805866157376,805864157376,805.866157376,805.864157376,-0.066,0.082,0.995,0.0,0.0,-0.183,0.01528745863376748,4.697,3.777,68.505
805876462783,805874462783,805.876462783,805.874462783,-0.066,0.082,0.995,0.0,0.0,-0.183,0.015122305530438303,4.697,3.777,68.504
805886595515,805884595515,805.886595515,805.884595515,-0.066,0.082,0.995,0.0,0.0,-0.183,0.014926793757014655,4.697,3.777,68.502
805896886921,805894886921,805.896886921,805.894886921,-0.066,0.082,0.995,0.0,0.0,-0.183,0.01470958673183252,4.697,3.777,68.5
805907019945,805905019945,805.907019945,805.905019945,-0.066,0.082,0.995,0.0,0.0,-0.183,0.014476434767777362,4.697,3.777,68.498
805917432107,805915432107,805.917432107,805.915432107,-0.066,0.082,0.995,0.0,0.0,-0.183,0.01422752614218251,4.697,3.777,68.496
805927478210,805925478210,805.92747821,805.92547821,-0.066,0.082,0.995,0.0,0.0,-0.183,0.013978521669141429,4.697,3.777,68.494
805937849828,805935849828,805.937849828,805.935849828,-0.066,0.082,0.995,0.0,0.0,-0.183,0.013715701971394954,4.697,3.777,68.492
805948056939,805946056939,805.948056939,805.946056939,-0.066,0.082,0.995,0.0,0.0,0.0,0.013972038570280102,4.697,3.777,68.49
805958300510,805956300510,805.95830051,805.95630051,-0.066,0.082,0.995,0.0,0.0,-0.183,0.014080973731513046,4.697,3.777,68.488
805968590166,805966590166,805.968590166,805.966590166,-0.066,0.082,0.995,0.0,0.0,-0.183,0.014083297408198801,4.697,3.777,68.486
805978723481,805976723481,805.978723481,805.976723481,-0.066,0.082,0.995,0.0,0.0,-0.183,0.01400862087230832,4.697,3.777,68.484
805989097142,805987097142,805.989097142,805.987097142,-0.066,0.082,0.995,0.0,0.0,0.0,0.014409607758231293,4.697,3.777,68.482
805999346546,805997346546,805.999346546,805.997346546,-0.066,0.082,0.995,0.0,0.0,-0.183,0.014618690574036341,4.697,3.777,68.48
806009525655,806007525655,806.009525655,806.007525655,-0.066,0.082,0.995,0.0,0.0,-0.183,0.014692992707072612,4.697,3.777,68.478
806019756100,806017756100,806.0197561,806.0177561,-0.066,0.082,0.995,0.0,0.0,-0.183,0.014670604489520067,4.697,3.777,68.476
806029987712,806027987712,806.029987712,806.027987712,-0.066,0.082,0.995,0.0,0.0,0.0,0.015099968108006045,4.697,3.777,68.475
806040369248,806038369248,806.040369248,806.038369248,-0.066,0.082,0.995,0.0,0.0,-0.183,0.015334263622751991,4.697,3.777,68.472
806050563233,806048563233,806.050563233,806.048563233,-0.066,0.082,0.995,0.0,0.0,-0.183,0.015424679711689914,4.697,3.777,68.47
806060778802,806058778802,806.060778802,806.058778802,-0.066,0.082,0.995,0.0,0.0,-0.183,0.015413750946401029,4.697,3.777,68.468
806071032290,806069032290,806.07103229,806.06903229,-0.066,0.082,0.995,0.0,0.0,0.0,0.01584949324289939,4.697,3.777,68.467
806081233567,806079233567,806.081233567,806.079233567,-0.066,0.082,0.995,0.0,0.0,-0.183,0.016087992367998537,4.697,3.777,68.464
806091429885,806089429885,806.091429885,806.089429885,-0.066,0.082,0.995,0.0,0.0,-0.183,0.01618363103132475,4.697,3.777,68.463
806101648079,806099648079,806.101648079,806.099648079,-0.066,0.082,0.995,0.0,0.0,-0.122,0.01634992670623696,4.697,3.777,68.461
806111872691,806109872691,806.111872691,806.109872691,-0.066,0.082,0.995,0.0,0.0,-0.122,0.016566896188339203,4.697,3.777,68.459
806122109553,806120109553,806.122109553,806.120109553,-0.066,0.082,0.995,0.0,0.0,-0.122,0.01682089484818851,4.697,3.777,68.457
806132487297,806130487297,806.132487297,806.130487297,-0.066,0.082,0.995,0.0,0.0,-0.122,0.017106155076709862,4.697,3.777,68.455
806142689740,806140689740,806.14268974,806.14068974,-0.066,0.082,0.995,0.0,0.0,-0.183,0.017232439233717197,4.697,3.777,68.453
806152852224,806150852224,806.152852224,806.150852224,-0.066,0.082,0.995,0.0,0.0,-0.183,0.017247766322036822,4.697,3.777,68.452
806163165214,806161165214,806.163165214,806.161165214,-0.066,0.082,0.995,0.0,0.0,-0.183,0.017181952380352018,4.697,3.777,68.449
806173403827,806171403827,806.173403827,806.171403827,-0.066,0.082,0.995,0.0,0.0,-0.122,0.01723194143732127,4.697,3.777,68.448
806183594311,806181594311,806.183594311,806.181594311,-0.066,0.082,0.995,0.0,0.0,-0.122,0.017364648092996558,4.697,3.777,68.446
806193773128,806191773128,806.193773128,806.191773128,-0.066,0.082,0.995,0.0,0.0,-0.122,0.017557739671992173,4.697,3.777,68.444
806204010574,806202010574,806.204010574,806.202010574,-0.066,0.082,0.995,0.0,0.0,0.0,0.01814098154209455,4.697,3.777,68.442
806214560410,806212560410,806.21456041,806.21256041,-0.066,0.082,0.995,0.0,0.0,-0.122,0.018667052200432015,4.697,3.777,68.44
806224761979,806222761979,806.224761979,806.222761979,-0.066,0.082,0.995,0.0,0.0,-0.122,0.019137973373567235,4.697,3.777,68.439
806234800789,806232800789,806.234800789,806.232800789,-0.066,0.082,0.995,0.0,0.0,-0.122,0.019567316995117972,4.697,3.777,68.437
806245190200,806243190200,806.2451902,806.2431902,-0.066,0.082,0.995,0.0,0.0,0.0,0.020343262176695846,4.697,3.777,68.435
806255406936,806253406936,806.255406936,806.253406936,-0.066,0.082,0.995,0.0,0.0,-0.183,0.02081807639412407,4.697,3.777,68.433
806265838642,806263838642,806.265838642,806.263838642,-0.066,0.082,0.995,0.0,0.0,-0.183,0.02108670564659798,4.697,3.777,68.431
806276047502,806274047502,806.276047502,806.274047502,-0.066,0.082,0.995,0.0,0.0,-0.183,0.021200520901693293,4.697,3.777,68.429
806286286989,806284286989,806.286286989,806.284286989,-0.066,0.082,0.995,0.0,0.0,-0.183,0.02120631873119219,4.697,3.777,68.427
806296551853,806294551853,806.296551853,806.294551853,-0.066,0.082,0.995,0.0,0.0,-0.183,0.021133674452324846,4.697,3.777,68.425
806306752255,806304752255,806.306752255,806.304752255,-0.066,0.082,0.995,0.0,0.0,-0.122,0.02117780222075024,4.697,3.777,68.423
806316932530,806314932530,806.31693253,806.31493253,-0.066,0.082,0.995,0.0,0.0,-0.122,0.021306950214279082,4.697,3.777,68.421
806327054762,806325054762,806.327054762,806.325054762,-0.066,0.082,0.995,0.0,0.0,0.0,0.02183654622098382,4.697,3.777,68.42
806337551804,806335551804,806.337551804,806.335551804,-0.066,0.082,0.995,0.0,0.0,-0.122,0.022331396250337872,4.697,3.777,68.418
806347734705,806345734705,806.347734705,806.345734705,-0.066,0.082,0.995,0.0,0.0,-0.183,0.022602662894404536,4.697,3.777,68.416
806358327418,806356327418,806.358327418,806.356327418,-0.066,0.082,0.995,0.0,0.0,-0.183,0.022722902579248295,4.697,3.777,68.414
806368215721,806366215721,806.368215721,806.366215721,-0.066,0.082,0.995,0.0,0.0,-0.183,0.022732981877726103,4.697,3.777,68.412
806378501293,806376501293,806.378501293,806.376501293,-0.066,0.082,0.995,0.0,0.0,-0.183,0.022663896065772588,4.697,3.777,68.41
806388803492,806386803492,806.388803492,806.386803492,-0.066,0.082,0.995,0.0,0.0,-0.183,0.022535446363386155,4.697,3.777,68.408
806398829177,806396829177,806.398829177,806.396829177,-0.066,0.082,0.995,0.0,0.0,-0.183,0.02237133587285057,4.697,3.777,68.406
806409059038,806407059038,806.409059038,806.407059038,-0.066,0.082,0.995,0.0,0.0,-0.183,0.0221741426841181,4.697,3.777,68.404
806419259732,806417259732,806.419259732,806.417259732,-0.066,0.082,0.995,0.0,0.0,-0.183,0.021956139479568815,4.697,3.777,68.402
806429520512,806427520512,806.429520512,806.427520512,-0.066,0.082,0.995,0.0,0.0,-0.183,0.02172203134219658,4.697,3.777,68.401
806439879005,806437879005,806.439879005,806.437879005,-0.066,0.082,0.995,0.0,0.0,-0.183,0.021472624726548727,4.697,3.777,68.399
806450085240,806448085240,806.45008524,806.44808524,-0.066,0.082,0.995,0.0,0.0,-0.183,0.021219365388344975,4.697,3.777,68.397
806460322977,806458322977,806.460322977,806.458322977,-0.066,0.082,0.995,0.0,0.0,-0.122,0.021133602319874847,4.697,3.777,68.395
806470556631,806468556631,806.470556631,806.468556631,-0.066,0.082,0.995,0.0,0.0,-0.183,0.020995228636382382,4.697,3.777,68.393
806480729906,806478729906,806.480729906,806.478729906,-0.066,0.082,0.995,0.0,0.0,-0.183,0.02082008393731984,4.697,3.777,68.391
806490955101,806488955101,806.490955101,806.488955101,-0.066,0.082,0.995,0.0,0.0,-0.183,0.020616699415422105,4.697,3.777,68.389
806501185838,806499185838,806.501185838,806.499185838,-0.066,0.082,0.995,0.0,0.0,0.0,0.02091431172762252,4.697,3.777,68.387
806511599750,806509599750,806.51159975,806.50959975,-0.066,0.082,0.995,0.0,0.0,-0.183,0.02105303690834986,4.697,3.777,68.385
806521660145,806519660145,806.521660145,806.519660145,-0.066,0.082,0.995,0.0,0.0,-0.183,0.021076359646916093,4.697,3.777,68.383
806532007263,806530007263,806.532007263,806.530007263,-0.066,0.082,0.995,0.0,0.0,-0.122,0.021193488160495995,4.697,3.777,68.382
806542051906,806540051906,806.542051906,806.540051906,-0.066,0.082,0.995,0.0,0.0,-0.122,0.021370032007941166,4.697,3.777,68.38
806552240349,806550240349,806.552240349,806.550240349,-0.066,0.082,0.995,0.0,0.0,-0.122,0.021595336557563946,4.697,3.777,68.378
806562442209,806560442209,806.562442209,806.560442209,-0.066,0.082,0.995,0.0,0.0,-0.122,0.021856013016513475,4.697,3.777,68.376
806572650778,806570650778,806.572650778,806.570650778,-0.066,0.082,0.995,0.0,0.0,-0.122,0.022141144388339282,4.697,3.777,68.374
806583444752,806581444752,806.583444752,806.581444752,-0.066,0.082,0.995,0.0,0.0,-0.122,0.02245689277580373,4.697,3.777,68.373
806593265968,806591265968,806.593265968,806.591265968,-0.066,0.082,0.995,0.0,0.0,-0.122,0.02276459619720427,4.697,3.777,68.371
806604554342,806602554342,806.604554342,806.602554342,-0.066,0.082,0.995,0.0,0.0,-0.183,0.022918950173831325,4.697,3.777,68.369
806614550859,806612550859,806.614550859,806.612550859,-0.066,0.082,0.995,0.0,0.0,-0.183,0.02294464953916448,4.697,3.777,68.367
806624939395,806622939395,806.624939395,806.622939395,-0.066,0.082,0.995,0.0,0.0,-0.183,0.02288538324945553,4.697,3.777,68.365
806635167507,806633167507,806.635167507,806.633167507,-0.066,0.082,0.995,0.0,0.0,-0.183,0.022766837874049296,4.697,3.777,68.363
806645414578,806643414578,806.645414578,806.643414578,-0.066,0.082,0.995,0.0,0.0,-0.183,0.022604929757934104,4.697,3.777,68.361
806655592812,806653592812,806.655592812,806.653592812,-0.066,0.082,0.995,0.0,0.0,-0.183,0.022412163509914595,4.697,3.777,68.359
806666082562,806664082562,806.666082562,806.664082562,-0.066,0.082,0.995,0.0,0.0,-0.183,0.022192956870046923,4.697,3.777,68.357
806686648457,806684648457,806.686648457,806.684648457,-0.066,0.082,0.995,0.0,0.0,-0.183,0.021705752089649435,4.697,3.777,68.353
806696856151,806694856151,806.696856151,806.694856151,-0.066,0.082,0.995,0.0,0.0,-0.183,0.021454089329483443,4.697,3.777,68.351
806707074929,806705074929,806.707074929,806.705074929,-0.066,0.082,0.995,0.0,0.0,-0.183,0.021196957598774605,4.697,3.777,68.349
806717318791,806715318791,806.717318791,806.715318791,-0.066,0.082,0.995,0.0,0.0,-0.183,0.020934947673620922,4.697,3.777,68.347
806727521234,806725521234,806.727521234,806.725521234,-0.066,0.082,0.995,0.0,0.0,-0.183,0.020669865565608257,4.697,3.777,68.345
806737754888,806735754888,806.737754888,806.735754888,-0.066,0.082,0.995,0.0,0.0,-0.183,0.02040218954207253,4.697,3.777,68.343
806747951498,806745951498,806.747951498,806.745951498,-0.066,0.082,0.995,0.0,0.0,-0.183,0.0201321693579828,4.697,3.777,68.341
806758159192,806756159192,806.758159192,806.756159192,-0.066,0.082,0.995,0.0,0.0,-0.183,0.019861685326813705,4.697,3.777,68.339
806768368927,806766368927,806.768368927,806.766368927,-0.066,0.082,0.995,0.0,0.0,-0.122,0.01976318465064572,4.697,3.777,68.337
806778583038,806776583038,806.778583038,806.776583038,-0.066,0.082,0.995,0.0,0.0,-0.122,0.019789061736439448,4.697,3.777,68.336
806788814650,806786814650,806.78881465,806.78681465,-0.066,0.082,0.995,0.0,0.0,-0.183,0.019731313897779684,4.697,3.777,68.334
806798981508,806796981508,806.798981508,806.796981508,-0.066,0.082,0.995,0.0,0.0,-0.183,0.019614283837662207,4.697,3.777,68.332
806809250747,806807250747,806.809250747,806.807250747,-0.066,0.082,0.995,0.0,0.0,0.0,0.0199730984159509,4.697,3.777,68.33
806819410313,806817410313,806.819410313,806.817410313,-0.066,0.082,0.995,0.0,0.0,-0.183,0.020155840811722472,4.697,3.777,68.328
806829631424,806827631424,806.829631424,806.827631424,-0.066,0.082,0.995,0.0,0.0,-0.183,0.02021153611301387,4.697,3.777,68.326
806839860994,806837860994,806.839860994,806.837860994,-0.066,0.082,0.995,0.0,0.0,-0.183,0.020175449589102487,4.697,3.777,68.324
806850061688,806848061688,806.850061688,806.848061688,-0.066,0.082,0.995,0.0,0.0,-0.183,0.02007321155856382,4.697,3.777,68.322
806860666361,806858666361,806.860666361,806.858666361,-0.066,0.082,0.995,0.0,0.0,-0.122,0.02009833767822592,4.697,3.777,68.32
806871074731,806869074731,806.871074731,806.869074731,-0.066,0.082,0.995,0.0,0.0,-0.183,0.020037244519362844,4.697,3.777,68.318
806883845141,806881845141,806.883845141,806.881845141,-0.066,0.082,0.995,0.0,0.0,-0.183,0.019884253347641975,4.697,3.777,68.316
806893366216,806891366216,806.893366216,806.891366216,-0.066,0.082,0.995,0.0,0.0,-0.183,0.019717762268041682,4.697,3.777,68.314
806903712167,806901712167,806.903712167,806.901712167,-0.066,0.082,0.995,0.0,0.0,-0.183,0.01951553043178956,4.697,3.777,68.312
806913923944,806911923944,806.913923944,806.911923944,-0.066,0.082,0.995,0.0,0.0,-0.183,0.01929651635716655,4.697,3.777,68.31
806924095761,806922095761,806.924095761,806.922095761,-0.066,0.082,0.995,0.0,0.0,-0.183,0.019063060275893395,4.697,3.777,68.308
806934381917,806932381917,806.934381917,806.932381917,-0.066,0.082,0.995,0.0,0.0,-0.183,0.01881646678275851,4.697,3.777,68.306
806945040843,806943040843,806.945040843,806.943040843,-0.066,0.082,0.995,0.0,0.0,-0.183,0.018556912997107447,4.697,3.777,68.304
806955299873,806953299873,806.955299873,806.953299873,-0.066,0.082,0.995,0.0,0.0,-0.183,0.018293961340670295,4.697,3.777,68.303
806965046418,806963046418,806.965046418,806.963046418,-0.066,0.082,0.995,0.0,0.0,-0.183,0.018039701810241775,4.697,3.777,68.301
806975424745,806973424745,806.975424745,806.973424745,-0.066,0.082,0.995,0.0,0.0,-0.183,0.01776858868912493,4.697,3.777,68.299
806985631856,806983631856,806.985631856,806.983631856,-0.066,0.082,0.995,0.0,0.0,-0.183,0.01750071005493113,4.697,3.777,68.297
806995838675,806993838675,806.995838675,806.993838675,-0.066,0.082,0.995,0.0,0.0,-0.183,0.01723051607902091,4.697,3.777,68.295
807006309465,807004309465,807.006309465,807.004309465,-0.066,0.082,0.995,0.0,0.0,-0.183,0.016954949882215412,4.697,3.777,68.293
807016717544,807014717544,807.016717544,807.014717544,-0.066,0.082,0.995,0.0,0.0,-0.183,0.0166780130311155,4.697,3.777,68.291
807026426463,807024426463,807.026426463,807.024426463,-0.066,0.082,0.995,0.0,0.0,-0.183,0.016415717448797426,4.697,3.777,68.289
807036885586,807034885586,807.036885586,807.034885586,-0.066,0.082,0.995,0.0,0.0,-0.183,0.016136551323314992,4.697,3.778,68.287
807046948897,807044948897,807.046948897,807.044948897,-0.066,0.082,0.995,0.0,0.0,-0.183,0.015866903993272632,4.697,3.778,68.285
807057300099,807055300099,807.057300099,807.055300099,-0.066,0.082,0.995,0.0,0.0,0.0,0.01612173267828233,4.697,3.778,68.283
807067588880,807065588880,807.06758888,807.06558888,-0.066,0.082,0.995,0.0,0.0,-0.122,0.016401109098296743,4.697,3.778,68.281
807077738529,807075738529,807.077738529,807.075738529,-0.066,0.082,0.995,0.0,0.0,-0.183,0.016525924627592996,4.697,3.778,68.28
807087968099,807085968099,807.087968099,807.085968099,-0.066,0.082,0.995,0.0,0.0,-0.183,0.0165401220906777,4.697,3.778,68.278
807098214295,807096214295,807.098214295,807.096214295,-0.066,0.082,0.995,0.0,0.0,0.0,0.016995375263104927,4.697,3.778,68.276
807108549162,807106549162,807.108549162,807.106549162,-0.066,0.082,0.995,0.0,0.0,-0.183,0.017248814187333365,4.697,3.778,68.274
807118760064,807116760064,807.118760064,807.116760064,-0.066,0.082,0.995,0.0,0.0,-0.122,0.01752587584207419,4.697,3.778,68.272
807129169894,807127169894,807.129169894,807.127169894,-0.066,0.082,0.995,0.0,0.0,-0.122,0.01782870691476026,4.697,3.778,68.27
807139395088,807137395088,807.139395088,807.137395088,-0.066,0.082,0.995,0.0,0.0,-0.122,0.018140107232273786,4.697,3.778,68.269
807149617366,807147617366,807.149617366,807.147617366,-0.066,0.082,0.995,0.0,0.0,-0.122,0.01846227217999002,4.697,3.778,68.267
807160177411,807158177411,807.160177411,807.158177411,-0.066,0.082,0.995,0.0,0.0,-0.122,0.018799850964427538,4.697,3.778,68.265
807170138634,807168138634,807.170138634,807.168138634,-0.066,0.082,0.995,0.0,0.0,-0.122,0.019128845096905312,4.697,3.778,68.263
807180329702,807178329702,807.180329702,807.178329702,-0.066,0.082,0.995,0.0,0.0,0.0,0.01981389849989886,4.697,3.778,68.262
807190479060,807188479060,807.19047906,807.18847906,-0.066,0.082,0.995,0.0,0.0,-0.183,0.020231510533782915,4.697,3.778,68.26
807200691129,807198691129,807.200691129,807.198691129,-0.066,0.082,0.995,0.0,0.0,-0.183,0.020458011786786946,4.697,3.778,68.258
807210925657,807208925657,807.210925657,807.208925657,-0.066,0.082,0.995,0.0,0.0,-0.183,0.02054526909425575,4.697,3.778,68.256
807221113517,807219113517,807.221113517,807.219113517,-0.066,0.082,0.995,0.0,0.0,-0.183,0.02053207212541338,4.697,3.778,68.254
807231353587,807229353587,807.231353587,807.229353587,-0.066,0.082,0.995,0.0,0.0,-0.183,0.0204460921183632,4.697,3.778,68.252
807241563906,807239563906,807.241563906,807.239563906,-0.066,0.082,0.995,0.0,0.0,-0.183,0.02030780278625993,4.697,3.778,68.25
807251780059,807249780059,807.251780059,807.249780059,-0.066,0.082,0.995,0.0,0.0,-0.183,0.020132058227229167,4.697,3.778,68.248
807261980169,807259980169,807.261980169,807.259980169,-0.066,0.082,0.995,0.0,0.0,-0.183,0.019928734366625497,4.697,3.778,68.246
807276876355,807274876355,807.276876355,807.274876355,-0.066,0.082,0.995,0.0,0.0,-0.183,0.019691741332727608,4.697,3.778,68.244
807283055924,807281055924,807.283055924,807.281055924,-0.066,0.082,0.995,0.0,0.0,-0.183,0.01945681554021018,4.697,3.778,68.242
807292874223,807290874223,807.292874223,807.290874223,-0.066,0.082,0.995,0.0,0.0,-0.183,0.019215023236542214,4.697,3.778,68.241
807303085125,807301085125,807.303085125,807.301085125,-0.066,0.082,0.995,0.0,0.0,-0.183,0.01896041979755455,4.697,3.778,68.239
807313277651,807311277651,807.313277651,807.311277651,-0.066,0.082,0.995,0.0,0.0,0.0,0.019218188224724788,4.697,3.778,68.237
807323518597,807321518597,807.323518597,807.321518597,-0.066,0.082,0.995,0.0,0.0,-0.183,0.019328554825256795,4.697,3.778,68.235
807333693331,807331693331,807.333693331,807.331693331,-0.066,0.082,0.995,0.0,0.0,-0.183,0.019331914134435364,4.697,3.778,68.233
807343942735,807341942735,807.343942735,807.341942735,-0.066,0.082,0.995,0.0,0.0,-0.183,0.019257669683492955,4.697,3.778,68.231
807354283436,807352283436,807.354283436,807.352283436,-0.066,0.082,0.995,0.0,0.0,-0.183,0.019127041324262323,4.697,3.778,68.229
807364694432,807362694432,807.364694432,807.362694432,-0.066,0.082,0.995,0.0,0.0,-0.122,0.01913255967036472,4.697,3.778,68.227
807374776994,807372776994,807.374776994,807.372776994,-0.066,0.082,0.995,0.0,0.0,-0.122,0.019231777503865993,4.697,3.778,68.225
807384984396,807382984396,807.384984396,807.382984396,-0.066,0.082,0.995,0.0,0.0,-0.183,0.019227930489903674,4.697,3.778,68.223
807395222133,807393222133,807.395222133,807.393222133,-0.066,0.082,0.995,0.0,0.0,0.0,0.01967020726640309,4.697,3.778,68.221
807405611836,807403611836,807.405611836,807.403611836,-0.066,0.082,0.995,0.0,0.0,-0.183,0.019914269933510944,4.697,3.778,68.219
807415828864,807413828864,807.415828864,807.413828864,-0.066,0.082,0.995,0.0,0.0,-0.183,0.02001134919465452,4.697,3.778,68.217
807426035391,807424035391,807.426035391,807.424035391,-0.066,0.082,0.995,0.0,0.0,-0.183,0.020005200645387945,4.697,3.778,68.216
807436254461,807434254461,807.436254461,807.434254461,-0.066,0.082,0.995,0.0,0.0,0.0,0.020444290558746494,4.697,3.778,68.214
807446507948,807444507948,807.446507948,807.444507948,-0.066,0.082,0.995,0.0,0.0,-0.183,0.0206853514474162,4.697,3.778,68.212
807456701058,807454701058,807.456701058,807.454701058,-0.066,0.082,0.995,0.0,0.0,-0.183,0.020782665963942213,4.697,3.778,68.21
807467082886,807465082886,807.467082886,807.465082886,-0.066,0.082,0.995,0.0,0.0,-0.183,0.020775495558921615,4.697,3.778,68.208
807477302539,807475302539,807.477302539,807.475302539,-0.066,0.082,0.995,0.0,0.0,0.0,0.021214586084204415,4.697,3.778,68.206
807487506441,807485506441,807.487506441,807.485506441,-0.066,0.082,0.995,0.0,0.0,-0.183,0.02145501722325855,4.697,3.778,68.204
807497943105,807495943105,807.497943105,807.495943105,-0.066,0.082,0.995,0.0,0.0,-0.183,0.021552489231668116,4.697,3.778,68.202
807508236845,807506236845,807.508236845,807.506236845,-0.066,0.082,0.995,0.0,0.0,-0.183,0.021544695379690317,4.697,3.778,68.2
807518386494,807516386494,807.518386494,807.516386494,-0.066,0.082,0.995,0.0,0.0,-0.183,0.021463262843362047,4.697,3.778,68.198
807528401678,807526401678,807.528401678,807.526401678,-0.066,0.082,0.995,0.0,0.0,-0.183,0.021332322764256974,4.697,3.778,68.196
807538772713,807536772713,807.538772713,807.536772713,-0.066,0.082,0.995,0.0,0.0,-0.183,0.021154916149169912,4.697,3.778,68.194
807548995283,807546995283,807.548995283,807.546995283,-0.066,0.082,0.995,0.0,0.0,-0.183,0.02095313803353223,4.697,3.778,68.192
807559198310,807557198310,807.55919831,807.55719831,-0.066,0.082,0.995,0.0,0.0,0.0,0.021250441297888095,4.697,3.778,68.19
807569638766,807567638766,807.569638766,807.567638766,-0.066,0.082,0.995,0.0,0.0,-0.183,0.021389492698531465,4.696,3.778,68.188
807579809416,807577809416,807.579809416,807.577809416,-0.066,0.082,0.995,0.0,0.0,-0.183,0.021411847206248998,4.696,3.778,68.186
807590039569,807588039569,807.590039569,807.588039569,-0.066,0.082,0.995,0.0,0.0,-0.183,0.021351795197000315,4.696,3.778,68.184
807600255138,807598255138,807.600255138,807.598255138,-0.066,0.082,0.995,0.0,0.0,0.0,0.021752491946552564,4.696,3.778,68.182
807610600506,807608600506,807.610600506,807.608600506,-0.066,0.082,0.995,0.0,0.0,-0.183,0.021966336752822672,4.696,3.778,68.18
807620860703,807618860703,807.620860703,807.618860703,-0.066,0.082,0.995,0.0,0.0,-0.183,0.022042405555566753,4.696,3.778,68.178
807631091731,807629091731,807.631091731,807.629091731,-0.066,0.082,0.995,0.0,0.0,-0.183,0.02202087744913062,4.696,3.778,68.176
807641295633,807639295633,807.641295633,807.639295633,-0.066,0.082,0.995,0.0,0.0,0.0,0.022449329338543423,4.696,3.778,68.174
807651669877,807649669877,807.651669877,807.649669877,-0.066,0.082,0.995,0.0,0.0,-0.122,0.02286176501010174,4.696,3.778,68.172
807661889238,807659889238,807.661889238,807.659889238,-0.066,0.082,0.995,0.0,0.0,-0.122,0.023251725320977995,4.696,3.778,68.17
807672103932,807670103932,807.672103932,807.670103932,-0.066,0.082,0.995,0.0,0.0,-0.122,0.023630631341773838,4.696,3.778,68.169
807682493344,807680493344,807.682493344,807.680493344,-0.066,0.082,0.995,0.0,0.0,-0.183,0.02382886294820228,4.697,3.778,68.167
807692739831,807690739831,807.692739831,807.690739831,-0.066,0.082,0.995,0.0,0.0,-0.183,0.02389336340469459,4.697,3.778,68.165
807702907273,807700907273,807.702907273,807.700907273,-0.066,0.082,0.995,0.0,0.0,-0.183,0.023863754941429647,4.697,3.778,68.163
807713817336,807711817336,807.713817336,807.711817336,-0.066,0.082,0.995,0.0,0.0,0.0,0.024317513985783263,4.697,3.778,68.161
807723639135,807721639135,807.723639135,807.721639135,-0.066,0.082,0.995,0.0,0.0,-0.183,0.02455424698051096,4.697,3.778,68.159
807733918000,807731918000,807.733918,807.731918,-0.066,0.082,0.995,0.0,0.0,-0.122,0.024826608510917628,4.697,3.778,68.157
807744153695,807742153695,807.744153695,807.742153695,-0.066,0.082,0.995,0.0,0.0,-0.122,0.025119863783864858,4.697,3.778,68.155
807754342721,807752342721,807.754342721,807.752342721,-0.066,0.082,0.995,0.0,0.0,0.0,0.02577389107943971,4.697,3.778,68.153
807764566749,807762566749,807.764566749,807.762566749,-0.066,0.082,0.995,0.0,0.0,-0.183,0.026170018339467097,4.697,3.778,68.151
807774791069,807772791069,807.774791069,807.772791069,-0.066,0.082,0.995,0.0,0.0,-0.183,0.026380066490521253,4.697,3.778,68.15
807785000513,807783000513,807.785000513,807.783000513,-0.066,0.082,0.995,0.0,0.0,-0.183,0.02645537577419132,4.697,3.778,68.148
807795399258,807793399258,807.795399258,807.793399258,-0.066,0.082,0.995,0.0,0.0,-0.183,0.026431889566350446,4.697,3.778,68.146
807805635537,807803635537,807.805635537,807.803635537,-0.066,0.082,0.995,0.0,0.0,-0.183,0.026338550164996942,4.697,3.778,68.144
807815821938,807813821938,807.815821938,807.813821938,-0.066,0.082,0.995,0.0,0.0,-0.183,0.026195942456471236,4.697,3.778,68.142
807826062591,807824062591,807.826062591,807.824062591,-0.066,0.082,0.995,0.0,0.0,-0.183,0.02601596328667476,4.696,3.778,68.14
807836400959,807834400959,807.836400959,807.834400959,-0.066,0.082,0.995,0.0,0.0,0.0,0.026340119295040477,4.696,3.778,68.138
807846652405,807844652405,807.846652405,807.844652405,-0.066,0.082,0.995,0.0,0.0,-0.183,0.026494424432782396,4.696,3.778,68.136
807856834722,807854834722,807.856834722,807.854834722,-0.066,0.082,0.995,0.0,0.0,-0.183,0.026529488830072844,4.696,3.778,68.134
807867052917,807865052917,807.867052917,807.865052917,-0.066,0.082,0.995,0.0,0.0,-0.122,0.02665188335655734,4.696,3.778,68.132
807877367074,807875367074,807.877367074,807.875367074,-0.066,0.082,0.995,0.0,0.0,-0.122,0.026838689197249858,4.696,3.778,68.13
807887566601,807885566601,807.887566601,807.885566601,-0.066,0.082,0.995,0.0,0.0,-0.122,0.027069597869792555,4.696,3.778,68.128
807897799505,807895799505,807.897799505,807.895799505,-0.066,0.082,0.995,0.0,0.0,-0.122,0.02733250154104401,4.696,3.778,68.127
807908107662,807906107662,807.908107662,807.906107662,-0.066,0.082,0.995,0.0,0.0,-0.183,0.027446759787263977,4.696,3.778,68.125
807918322648,807916322648,807.918322648,807.916322648,-0.066,0.082,0.995,0.0,0.0,0.0,0.027971613889495393,4.696,3.778,68.123
807928710018,807926710018,807.928710018,807.926710018,-0.066,0.082,0.995,0.0,0.0,-0.183,0.02827679767238351,4.696,3.778,68.121
807938909253,807936909253,807.938909253,807.936909253,-0.066,0.082,0.995,0.0,0.0,-0.183,0.028417034884954055,4.696,3.778,68.119
807949133281,807947133281,807.949133281,807.947133281,-0.066,0.082,0.995,0.0,0.0,-0.183,0.02844207955764291,4.696,3.777,68.117
807959349725,807957349725,807.959349725,807.957349725,-0.066,0.082,0.995,0.0,0.0,-0.183,0.02838402759061113,4.696,3.777,68.115
807969575503,807967575503,807.969575503,807.967575503,-0.066,0.082,0.995,0.0,0.0,-0.183,0.028265662020782338,4.696,3.777,68.113
807979964914,807977964914,807.979964914,807.977964914,-0.066,0.082,0.995,0.0,0.0,-0.183,0.02810085015153174,4.696,3.777,68.111
807990183109,807988183109,807.990183109,807.988183109,-0.066,0.082,0.995,0.0,0.0,-0.183,0.027907586111230856,4.696,3.777,68.109
808001158801,807999158801,808.001158801,807.999158801,-0.066,0.082,0.995,0.0,0.0,-0.183,0.027682413553877874,4.696,3.777,68.107
808013785411,808011785411,808.013785411,808.011785411,-0.066,0.082,0.995,0.0,0.0,-0.183,0.027404286053881333,4.696,3.777,68.105
808022836879,808020836879,808.022836879,808.020836879,-0.066,0.082,0.995,0.0,0.0,-0.183,0.027166623920343108,4.696,3.777,68.103
808033069074,808031069074,808.033069074,808.031069074,-0.066,0.082,0.995,0.0,0.0,-0.183,0.026911982691681716,4.696,3.777,68.101
808043338021,808041338021,808.043338021,808.041338021,-0.066,0.082,0.995,0.0,0.0,0.0,0.02717284272826923,4.696,3.777,68.099
808053602592,808051602592,808.053602592,808.051602592,-0.066,0.082,0.995,0.0,0.0,-0.183,0.027284904161559338,4.696,3.777,68.097
808063992587,808061992587,808.063992587,808.061992587,-0.066,0.082,0.995,0.0,0.0,-0.183,0.027287891368987027,4.696,3.777,68.095
808074135819,808072135819,808.074135819,808.072135819,-0.066,0.082,0.995,0.0,0.0,-0.183,0.02721436954893226,4.696,3.777,68.093
808084477687,808082477687,808.084477687,808.082477687,-0.066,0.082,0.995,0.0,0.0,-0.183,0.02708279866490234,4.696,3.777,68.091
808094668755,808092668755,808.094668755,808.092668755,-0.066,0.082,0.995,0.0,0.0,-0.183,0.026912674705304993,4.696,3.777,68.089
808104875865,808102875865,808.104875865,808.102875865,-0.066,0.082,0.995,0.0,0.0,-0.183,0.02671369317986529,4.696,3.777,68.087
808115109227,808113109227,808.115109227,808.113109227,-0.066,0.082,0.995,0.0,0.0,-0.183,0.02649346796040141,4.696,3.777,68.085
808125329172,808123329172,808.125329172,808.123329172,-0.066,0.082,0.995,0.0,0.0,0.0,0.02677794073849044,4.696,3.777,68.083
808135532782,808133532782,808.135532782,808.133532782,-0.066,0.082,0.995,0.0,0.0,-0.183,0.026907164604757432,4.696,3.777,68.081
808145739601,808143739601,808.145739601,808.143739601,-0.066,0.082,0.995,0.0,0.0,-0.183,0.026924277193010663,4.696,3.777,68.079
808156132221,808154132221,808.156132221,808.154132221,-0.066,0.082,0.995,0.0,0.0,-0.122,0.027036560219666654,4.696,3.777,68.077
808166374625,808164374625,808.166374625,808.164374625,-0.066,0.082,0.995,0.0,0.0,-0.183,0.027039954239764824,4.696,3.777,68.075
808176618195,808174618195,808.176618195,808.174618195,-0.066,0.082,0.995,0.0,0.0,-0.183,0.026965742821435927,4.696,3.777,68.074
808186906685,808184906685,808.186906685,808.184906685,-0.066,0.082,0.995,0.0,0.0,-0.183,0.026834728332296953,4.696,3.777,68.072
808197161048,808195161048,808.197161048,808.195161048,-0.066,0.082,0.995,0.0,0.0,-0.183,0.026663858343866653,4.696,3.777,68.07
808207414244,808205414244,808.207414244,808.205414244,-0.066,0.082,0.995,0.0,0.0,0.0,0.026981393390404333,4.696,3.777,68.068
808217666857,808215666857,808.217666857,808.215666857,-0.066,0.082,0.995,0.0,0.0,-0.183,0.027135829894293098,4.697,3.777,68.066
808227857050,808225857050,808.22785705,808.22585705,-0.066,0.082,0.995,0.0,0.0,-0.183,0.027170069648288806,4.697,3.777,68.064
808238088370,808236088370,808.23808837,808.23608837,-0.066,0.082,0.995,0.0,0.0,-0.183,0.02711853990876341,4.697,3.777,68.062
808248279729,808246279729,808.248279729,808.246279729,-0.066,0.082,0.995,0.0,0.0,0.0,0.027524591781794703,4.697,3.777,68.06
808258663016,808256663016,808.258663016,808.256663016,-0.066,0.082,0.995,0.0,0.0,-0.183,0.027742915826635458,4.697,3.777,68.058
808268892586,808266892586,808.268892586,808.266892586,-0.066,0.082,0.995,0.0,0.0,-0.183,0.02782175172536171,4.697,3.777,68.056
808279302707,808277302707,808.279302707,808.277302707,-0.066,0.082,0.995,0.0,0.0,-0.122,0.027979268232358908,4.697,3.777,68.054
808289491149,808287491149,808.289491149,808.287491149,-0.066,0.082,0.995,0.0,0.0,0.0,0.02853350413116554,4.697,3.777,68.053
808299648674,808297648674,808.299648674,808.297648674,-0.066,0.082,0.995,0.0,0.0,-0.183,0.028857153305030556,4.697,3.777,68.05
808310442648,808308442648,808.310442648,808.308442648,-0.066,0.082,0.995,0.0,0.0,-0.122,0.029203769910485917,4.697,3.777,68.049
808322336262,808320336262,808.322336262,808.320336262,-0.066,0.082,0.995,0.0,0.0,-0.122,0.029599566365435596,4.697,3.777,68.046
808333043315,808331043315,808.333043315,808.331043315,-0.066,0.082,0.995,0.0,0.0,-0.122,0.0299572642762332,4.697,3.777,68.045
808343245175,808341245175,808.343245175,808.341245175,-0.066,0.082,0.995,0.0,0.0,0.0,0.030645910283515074,4.697,3.777,68.043
808353485538,808351485538,808.353485538,808.351485538,-0.066,0.082,0.995,0.0,0.0,-0.122,0.031241940073612737,4.697,3.777,68.041
808363707524,808361707524,808.363707524,808.361707524,-0.066,0.082,0.995,0.0,0.0,-0.122,0.0317674311531615,4.697,3.777,68.039
808374076518,808372076518,808.374076518,808.372076518,-0.066,0.082,0.995,0.0,0.0,-0.183,0.032073519879211726,4.697,3.777,68.037
808384285961,808382285961,808.384285961,808.382285961,-0.066,0.082,0.995,0.0,0.0,-0.122,0.032387846804973114,4.697,3.777,68.035
808394520198,808392520198,808.394520198,808.392520198,-0.066,0.082,0.995,0.0,0.0,-0.122,0.03271161633755209,4.697,3.777,68.033
808404745685,808402745685,808.404745685,808.402745685,-0.066,0.082,0.995,0.0,0.0,-0.183,0.032869290189713136,4.697,3.777,68.032
808414929169,808412929169,808.414929169,808.412929169,-0.066,0.082,0.995,0.0,0.0,-0.183,0.032906880152924665,4.697,3.777,68.03
808425173906,808423173906,808.425173906,808.423173906,-0.066,0.082,0.995,0.0,0.0,-0.183,0.032857813627933094,4.697,3.777,68.028
808435409310,808433409310,808.43540931,808.43340931,-0.066,0.082,0.995,0.0,0.0,0.0,0.0332682040051757,4.697,3.777,68.026
808445621379,808443621379,808.445621379,808.443621379,-0.066,0.082,0.995,0.0,0.0,-0.183,0.03348753677057685,4.697,3.777,68.024
808455960913,808453960913,808.455960913,808.453960913,-0.066,0.082,0.995,0.0,0.0,-0.122,0.03374589831002203,4.697,3.777,68.022
808466175024,808464175024,808.466175024,808.464175024,-0.066,0.082,0.995,0.0,0.0,-0.183,0.03385399296968923,4.697,3.777,68.02
808476386801,808474386801,808.476386801,808.474386801,-0.066,0.082,0.995,0.0,0.0,0.0,0.03437546315357703,4.697,3.777,68.018
808487060019,808485060019,808.487060019,808.485060019,-0.066,0.082,0.995,0.0,0.0,-0.183,0.03467598266666977,4.697,3.777,68.016
808510337971,808508337971,808.510337971,808.508337971,-0.066,0.082,0.995,0.0,0.0,-0.183,0.03474481384490694,4.697,3.777,68.012
808522198334,808520198334,808.522198334,808.520198334,-0.066,0.082,0.995,0.0,0.0,-0.183,0.03466864721310846,4.697,3.777,68.01
808532409819,808530409819,808.532409819,808.530409819,-0.066,0.082,0.995,0.0,0.0,0.0,0.03506517997600107,4.697,3.777,68.008
808542625389,808540625389,808.542625389,808.540625389,-0.066,0.082,0.995,0.0,0.0,-0.183,0.03527530254335655,4.697,3.777,68.006
808552841541,808550841541,808.552841541,808.550841541,-0.066,0.082,0.995,0.0,0.0,-0.183,0.035350762325439475,4.697,3.777,68.004
808563293373,808561293373,808.563293373,808.561293373,-0.066,0.082,0.995,0.0,0.0,-0.183,0.035327256709242624,4.697,3.777,68.002
808586232682,808584232682,808.586232682,808.584232682,-0.066,0.082,0.995,0.0,0.0,-0.183,0.035229195468824095,4.697,3.777,68.0
808593727736,808591727736,808.593727736,808.591727736,-0.066,0.082,0.995,0.0,0.0,0.0,0.036139762830873785,4.697,3.777,67.997
808600831061,808598831061,808.600831061,808.598831061,-0.066,0.082,0.995,0.0,0.0,-0.122,0.03664609226836913,4.697,3.777,67.995
808611072882,808609072882,808.611072882,808.609072882,-0.066,0.082,0.995,0.0,0.0,-0.122,0.037102772126498755,4.697,3.777,67.993
808621303618,808619303618,808.621303618,808.619303618,-0.066,0.082,0.995,0.0,0.0,0.0,0.03787722299106422,4.697,3.777,67.991
808631539897,808629539897,808.631539897,808.629539897,-0.066,0.082,0.995,0.0,0.0,-0.183,0.038359632341164615,4.697,3.777,67.989
808641737090,808639737090,808.64173709,808.63973709,-0.066,0.082,0.995,0.0,0.0,-0.183,0.038631826699472176,4.697,3.777,67.987
808651953243,808649953243,808.651953243,808.649953243,-0.066,0.082,0.995,0.0,0.0,-0.183,0.038752055403860924,4.697,3.777,67.985
808662333904,808660333904,808.662333904,808.660333904,-0.066,0.082,0.995,0.0,0.0,-0.183,0.038761421842015274,4.697,3.777,67.983
808684467589,808682467589,808.684467589,808.682467589,-0.066,0.082,0.995,0.0,0.0,-0.183,0.038688852595957335,4.697,3.777,67.981
808689578728,808687578728,808.689578728,808.687578728,-0.066,0.082,0.995,0.0,0.0,-0.183,0.03845793649993861,4.697,3.777,67.978
808698891250,808696891250,808.69889125,808.69689125,-0.066,0.082,0.995,0.0,0.0,-0.122,0.038448022624990044,4.697,3.777,67.976
808709161656,808707161656,808.709161656,808.707161656,-0.066,0.082,0.995,0.0,0.0,-0.183,0.03836457028116374,4.697,3.777,67.974
808719566818,808717566818,808.719566818,808.717566818,-0.066,0.082,0.995,0.0,0.0,-0.183,0.03822499097712364,4.697,3.777,67.972
808729965563,808727965563,808.729965563,808.727965563,-0.066,0.082,0.995,0.0,0.0,-0.183,0.03804644613897115,4.697,3.777,67.97
808740186091,808738186091,808.740186091,808.738186091,-0.066,0.082,0.995,0.0,0.0,-0.183,0.03784311755926279,4.697,3.777,67.969
808750428204,808748428204,808.750428204,808.748428204,-0.066,0.082,0.995,0.0,0.0,0.0,0.03814053640119529,4.697,3.777,67.967
808760637939,808758637939,808.760637939,808.758637939,-0.066,0.082,0.995,0.0,0.0,-0.183,0.03827892757649994,4.697,3.777,67.965
808770810923,808768810923,808.770810923,808.768810923,-0.066,0.082,0.995,0.0,0.0,-0.183,0.03830259507620626,4.697,3.777,67.963
808781035242,808779035242,808.781035242,808.779035242,-0.066,0.082,0.995,0.0,0.0,-0.183,0.03824344259004928,4.697,3.777,67.961
808791368943,808789368943,808.791368943,808.789368943,-0.066,0.082,0.995,0.0,0.0,0.0,0.0386508117269548,4.697,3.777,67.959
808801764480,808799764480,808.80176448,808.79976448,-0.066,0.082,0.995,0.0,0.0,-0.183,0.03886739816147234,4.697,3.777,67.957
808811712577,808809712577,808.811712577,808.809712577,-0.066,0.082,0.995,0.0,0.0,-0.183,0.038945419007543,4.697,3.777,67.955
808821884102,808819884102,808.821884102,808.819884102,-0.066,0.082,0.995,0.0,0.0,-0.183,0.0389274157881058,4.697,3.777,67.953
808832097338,808830097338,808.832097338,808.830097338,-0.066,0.082,0.995,0.0,0.0,-0.183,0.03883781443470033,4.697,3.777,67.951
808842344117,808840344117,808.842344117,808.840344117,-0.066,0.082,0.995,0.0,0.0,0.0,0.03921900080793277,4.697,3.777,67.949
808852724486,808850724486,808.852724486,808.850724486,-0.066,0.082,0.995,0.0,0.0,-0.122,0.03959656611928984,4.697,3.777,67.947
808862933639,808860933639,808.862933639,808.860933639,-0.066,0.082,0.995,0.0,0.0,-0.183,0.03978835058641768,4.697,3.777,67.945
808873143083,808871143083,808.873143083,808.871143083,-0.066,0.082,0.995,0.0,0.0,-0.183,0.0398506570295322,4.697,3.777,67.944
808883561662,808881561662,808.883561662,808.881561662,-0.066,0.082,0.995,0.0,0.0,-0.183,0.03981742494646886,4.697,3.777,67.942
808893748647,808891748647,808.893748647,808.891748647,-0.066,0.082,0.995,0.0,0.0,-0.183,0.039718441669143234,4.697,3.777,67.94
808903978800,808901978800,808.9039788,808.9019788,-0.066,0.082,0.995,0.0,0.0,-0.183,0.03956977996503296,4.697,3.777,67.938
808914204870,808912204870,808.91420487,808.91220487,-0.066,0.082,0.995,0.0,0.0,-0.183,0.039386625855554004,4.697,3.777,67.936
808924605949,808922605949,808.924605949,808.922605949,-0.066,0.082,0.995,0.0,0.0,-0.183,0.039174492919941045,4.697,3.777,67.934
808934781849,808932781849,808.934781849,808.932781849,-0.066,0.082,0.995,0.0,0.0,-0.183,0.038947477918009,4.697,3.777,67.932
808945044379,808943044379,808.945044379,808.943044379,-0.066,0.082,0.995,0.0,0.0,-0.183,0.03870675723259786,4.697,3.777,67.93
808955239531,808953239531,808.955239531,808.953239531,-0.066,0.082,0.995,0.0,0.0,-0.183,0.03845770576712602,4.697,3.777,67.928
808965443433,808963443433,808.965443433,808.963443433,-0.066,0.082,0.995,0.0,0.0,-0.183,0.03820096033142253,4.697,3.777,67.926
808975696629,808973696629,808.975696629,808.973696629,-0.066,0.082,0.995,0.0,0.0,-0.183,0.03793968788308662,4.697,3.777,67.924
808986066498,808984066498,808.986066498,808.984066498,-0.066,0.082,0.995,0.0,0.0,-0.183,0.03767015127661318,4.697,3.777,67.922
808996279150,808994279150,808.99627915,808.99427915,-0.066,0.082,0.995,0.0,0.0,-0.183,0.03740229038792307,4.697,3.777,67.92
809006479843,809004479843,809.006479843,809.004479843,-0.066,0.082,0.995,0.0,0.0,-0.183,0.037133240546456975,4.697,3.777,67.918
809016916799,809014916799,809.016916799,809.014916799,-0.066,0.082,0.995,0.0,0.0,-0.183,0.03685727842555247,4.697,3.777,67.916
809027091825,809025091825,809.027091825,809.025091825,-0.066,0.082,0.995,0.0,0.0,-0.183,0.03658609174936074,4.697,3.777,67.915
809037354646,809035354646,809.037354646,809.035354646,-0.066,0.082,0.995,0.0,0.0,0.0,0.03683313391731458,4.697,3.777,67.913
809047550673,809045550673,809.047550673,809.045550673,-0.066,0.082,0.995,0.0,0.0,-0.183,0.03693535045918325,4.697,3.777,67.911
809057929584,809055929584,809.057929584,809.055929584,-0.066,0.082,0.995,0.0,0.0,-0.183,0.03693154177208399,4.697,3.777,67.909
809068139028,809066139028,809.068139028,809.066139028,-0.066,0.082,0.995,0.0,0.0,-0.122,0.03702616447722882,4.697,3.777,67.907
809078350805,809076350805,809.078350805,809.076350805,-0.066,0.082,0.995,0.0,0.0,0.0,0.037537042121524415,4.697,3.777,67.905
809088567833,809086567833,809.088567833,809.086567833,-0.066,0.082,0.995,0.0,0.0,-0.122,0.038003541762680663,4.697,3.777,67.903
809098980871,809096980871,809.098980871,809.096980871,-0.066,0.082,0.995,0.0,0.0,-0.122,0.038444261565675944,4.697,3.777,67.901
809109194398,809107194398,809.109194398,809.107194398,-0.066,0.082,0.995,0.0,0.0,-0.183,0.03868077180630249,4.697,3.777,67.9
809119427760,809117427760,809.11942776,809.11742776,-0.066,0.082,0.995,0.0,0.0,-0.183,0.038775314547212954,4.697,3.777,67.898
809129842256,809127842256,809.129842256,809.127842256,-0.066,0.082,0.995,0.0,0.0,-0.122,0.038944007729461924,4.697,3.777,67.896
809140038282,809138038282,809.140038282,809.138038282,-0.066,0.082,0.995,0.0,0.0,-0.122,0.039161231563830966,4.697,3.778,67.894
809150253560,809148253560,809.15025356,809.14825356,-0.066,0.082,0.995,0.0,0.0,-0.183,0.03924160096987925,4.697,3.778,67.892
809160473505,809158473505,809.160473505,809.158473505,-0.066,0.082,0.995,0.0,0.0,-0.183,0.039223408746919784,4.697,3.778,67.89
809170658155,809168658155,809.170658155,809.168658155,-0.066,0.082,0.995,0.0,0.0,-0.183,0.03913408691183409,4.697,3.778,67.888
809181010523,809179010523,809.181010523,809.179010523,-0.066,0.082,0.995,0.0,0.0,-0.183,0.03899293656085487,4.697,3.778,67.886
809191118754,809189118754,809.191118754,809.189118754,-0.066,0.082,0.995,0.0,0.0,-0.183,0.03881515904186026,4.697,3.778,67.884
809201329656,809199329656,809.201329656,809.199329656,-0.066,0.082,0.995,0.0,0.0,0.0,0.039130554652949213,4.697,3.778,67.882
809211719359,809209719359,809.211719359,809.209719359,-0.066,0.082,0.995,0.0,0.0,-0.183,0.03928245773536842,4.697,3.778,67.88
809222133564,809220133564,809.222133564,809.220133564,-0.066,0.082,0.995,0.0,0.0,-0.183,0.03931407320781924,4.697,3.778,67.878
809238728796,809236728796,809.238728796,809.236728796,-0.066,0.082,0.995,0.0,0.0,-0.183,0.03925881740013658,4.697,3.778,67.876
809243379661,809241379661,809.243379661,809.241379661,-0.066,0.082,0.995,0.0,0.0,-0.122,0.039318795376971014,4.697,3.778,67.874
809253401845,809251401845,809.253401845,809.251401845,-0.066,0.082,0.995,0.0,0.0,0.0,0.03984397491311113,4.697,3.778,67.873
809263671959,809261671959,809.263671959,809.261671959,-0.066,0.082,0.995,0.0,0.0,-0.122,0.040305174721152345,4.697,3.778,67.871
809273914363,809271914363,809.273914363,809.271914363,-0.066,0.082,0.995,0.0,0.0,-0.122,0.040732665687105096,4.697,3.778,67.869
809284101931,809282101931,809.284101931,809.282101931,-0.066,0.082,0.995,0.0,0.0,-0.183,0.04096553683943564,4.697,3.778,67.867
809294310208,809292310208,809.294310208,809.292310208,-0.066,0.082,0.995,0.0,0.0,-0.183,0.041057318654715604,4.697,3.778,67.865
809304586155,809302586155,809.304586155,809.302586155,-0.066,0.082,0.995,0.0,0.0,-0.183,0.04104688843807625,4.697,3.778,67.863
809314783640,809312783640,809.31478364,809.31278364,-0.066,0.082,0.995,0.0,0.0,-0.183,0.040963410950673816,4.697,3.778,67.861
809324983167,809322983167,809.324983167,809.322983167,-0.066,0.082,0.995,0.0,0.0,-0.183,0.04082742236407969,4.697,3.778,67.859
809340587556,809338587556,809.340587556,809.338587556,-0.066,0.082,0.995,0.0,0.0,-0.183,0.04064031074382567,4.697,3.778,67.857
809347021472,809345021472,809.347021472,809.345021472,-0.066,0.082,0.995,0.0,0.0,-0.183,0.04043785029275464,4.697,3.778,67.855
809355963267,809353963267,809.355963267,809.353963267,-0.066,0.082,0.995,0.0,0.0,-0.183,0.04021843668842368,4.697,3.778,67.853
809366103291,809364103291,809.366103291,809.364103291,-0.066,0.082,0.995,0.0,0.0,-0.183,0.03998140932718367,4.697,3.778,67.851
809376272191,809374272191,809.376272191,809.374272191,-0.066,0.082,0.995,0.0,0.0,-0.183,0.03973464884145154,4.697,3.778,67.849
809386937241,809384937241,809.386937241,809.384937241,-0.066,0.082,0.995,0.0,0.0,-0.183,0.03947168343001005,4.697,3.778,67.847
809401876596,809399876596,809.401876596,809.399876596,-0.066,0.082,0.995,0.0,0.0,0.0,0.04005860366092498,4.697,3.778,67.845
809413984305,809411984305,809.413984305,809.411984305,-0.066,0.082,0.995,0.0,0.0,-0.183,0.04028735688755099,4.697,3.778,67.842
809425700285,809423700285,809.425700285,809.423700285,-0.066,0.082,0.995,0.0,0.0,-0.183,0.04034313272225923,4.697,3.778,67.84
809435891061,809433891061,809.435891061,809.433891061,-0.066,0.082,0.995,0.0,0.0,-0.183,0.040301197245527644,4.697,3.778,67.838
809446113047,809444113047,809.446113047,809.444113047,-0.066,0.082,0.995,0.0,0.0,-0.183,0.04019452841451999,4.697,3.778,67.836
809456329783,809454329783,809.456329783,809.454329783,-0.066,0.082,0.995,0.0,0.0,-0.183,0.04004130295048234,4.697,3.778,67.834
809466719778,809464719778,809.466719778,809.464719778,-0.066,0.082,0.995,0.0,0.0,-0.183,0.0398508749354837,4.697,3.778,67.832
809476893929,809474893929,809.476893929,809.474893929,-0.066,0.082,0.995,0.0,0.0,-0.183,0.039640324471346744,4.697,3.778,67.83
809487111248,809485111248,809.487111248,809.485111248,-0.066,0.082,0.995,0.0,0.0,-0.183,0.039411600128985945,4.697,3.778,67.828
809497322442,809495322442,809.497322442,809.495322442,-0.066,0.082,0.995,0.0,0.0,-0.183,0.03917013544824107,4.697,3.778,67.826
809507536261,809505536261,809.507536261,809.505536261,-0.066,0.082,0.995,0.0,0.0,-0.183,0.03891963977784926,4.697,3.778,67.824
809517794708,809515794708,809.517794708,809.515794708,-0.066,0.082,0.995,0.0,0.0,-0.183,0.038662130866104774,4.697,3.778,67.822
809527988692,809525988692,809.527988692,809.525988692,-0.066,0.082,0.995,0.0,0.0,-0.183,0.03840053950186331,4.697,3.778,67.82
809538196095,809536196095,809.538196095,809.536196095,-0.066,0.082,0.995,0.0,0.0,-0.122,0.038308528759068615,4.697,3.778,67.818
809548413997,809546413997,809.548413997,809.546413997,-0.066,0.082,0.995,0.0,0.0,-0.122,0.03833923512729233,4.697,3.778,67.816
809558805742,809556805742,809.558805742,809.556805742,-0.066,0.082,0.995,0.0,0.0,-0.122,0.03846147031037535,4.697,3.778,67.815
809568985726,809566985726,809.568985726,809.566985726,-0.066,0.082,0.995,0.0,0.0,-0.122,0.03864452481465377,4.697,3.778,67.813
809579227839,809577227839,809.579227839,809.577227839,-0.066,0.082,0.995,0.0,0.0,0.0,0.039223244346216074,4.697,3.778,67.811
809589574081,809587574081,809.589574081,809.587574081,-0.066,0.082,0.995,0.0,0.0,-0.122,0.0397391082124059,4.697,3.778,67.809
809599949492,809597949492,809.599949492,809.597949492,-0.066,0.082,0.995,0.0,0.0,-0.122,0.04021391307204114,4.697,3.778,67.807
809610100016,809608100016,809.610100016,809.608100016,-0.066,0.082,0.995,0.0,0.0,-0.183,0.040475028105579715,4.697,3.778,67.806
809620358463,809618358463,809.620358463,809.618358463,-0.066,0.082,0.995,0.0,0.0,-0.183,0.040587132625654505,4.697,3.778,67.804
809630586866,809628586866,809.630586866,809.628586866,-0.066,0.082,0.995,0.0,0.0,-0.183,0.04059154434523677,4.697,3.778,67.802
809640757808,809638757808,809.640757808,809.638757808,-0.066,0.082,0.995,0.0,0.0,-0.183,0.040518921785418355,4.697,3.778,67.8
809650969002,809648969002,809.650969002,809.648969002,-0.066,0.082,0.995,0.0,0.0,-0.183,0.04039005936917414,4.697,3.778,67.798
809661208781,809659208781,809.661208781,809.659208781,-0.066,0.082,0.995,0.0,0.0,-0.183,0.040220464467506774,4.697,3.778,67.796
809671404516,809669404516,809.671404516,809.669404516,-0.066,0.082,0.995,0.0,0.0,0.0,0.040540829396821784,4.697,3.778,67.794
809681630585,809679630585,809.681630585,809.679630585,-0.066,0.082,0.995,0.0,0.0,-0.183,0.0406962367701505,4.697,3.778,67.792
809691845863,809689845863,809.691845863,809.689845863,-0.066,0.082,0.995,0.0,0.0,-0.183,0.040732118603420395,4.697,3.778,67.79
809702080391,809700080391,809.702080391,809.700080391,-0.066,0.082,0.995,0.0,0.0,-0.183,0.04068154214874529,4.697,3.778,67.788
809712452885,809710452885,809.712452885,809.710452885,-0.066,0.082,0.995,0.0,0.0,-0.183,0.04056645007814395,4.697,3.778,67.786
809722682747,809720682747,809.722682747,809.720682747,-0.066,0.082,0.995,0.0,0.0,-0.183,0.040408458935222054,4.697,3.778,67.784
809732889274,809730889274,809.732889274,809.730889274,-0.066,0.082,0.995,0.0,0.0,-0.183,0.04021802380605557,4.697,3.778,67.782
809743112135,809741112135,809.743112135,809.741112135,-0.066,0.082,0.995,0.0,0.0,-0.183,0.040004371569372546,4.697,3.778,67.781
